"cont","accX","accY","accZ","gyroX","gyroY","gyroZ","millis","id"
13511,7668,156,-2100,-83,-2,-50,732147,"1"
13512,7672,140,-2082,-90,2,-25,732157,"1"
13513,7612,194,-2112,-110,-5,-26,732167,"1"
13514,7732,170,-2108,-108,-20,-36,732177,"1"
13515,7670,104,-2008,-121,-29,-20,732187,"1"
13516,8308,-202,-1210,-25,-4,-59,691447,"2"
13517,8284,-180,-1218,-28,-21,-82,691457,"2"
13518,8302,-166,-1208,-54,-10,-63,691467,"2"
13519,8280,-148,-1232,-103,-13,-72,691477,"2"
13520,8272,-168,-1242,-134,-31,-48,691487,"2"
13516,7646,154,-2006,-104,-35,-14,732197,"1"
13517,7718,160,-2076,-108,-35,-32,732207,"1"
13518,7698,124,-2124,-109,-51,-13,732217,"1"
13519,7702,140,-2150,-94,-45,-24,732227,"1"
13520,7680,110,-2084,-84,-49,-27,732237,"1"
13521,8308,-198,-1278,-161,-36,-43,691497,"2"
13522,8254,-130,-1252,-135,-21,-38,691507,"2"
13523,8334,-190,-1254,-138,-24,-27,691517,"2"
13524,8302,-308,-1264,-95,1,-23,691527,"2"
13525,8286,-186,-1274,-46,3,-26,691537,"2"
13521,7722,114,-2188,-72,-44,-28,732247,"1"
13522,7626,144,-2086,-84,-51,-16,732257,"1"
13523,7710,150,-2132,-93,-37,-16,732267,"1"
13524,7696,198,-2086,-85,-45,-18,732277,"1"
13525,7652,136,-2108,-84,-44,-16,732287,"1"
13526,8330,-164,-1238,-52,-18,-28,691547,"2"
13527,8298,-172,-1208,-83,-9,-10,691557,"2"
13528,8248,-134,-1136,-132,-31,-16,691567,"2"
13529,8276,-220,-1258,-170,-24,-13,691577,"2"
13530,8304,-228,-1316,-148,-28,9,691587,"2"
13526,7686,162,-2076,-55,-32,-23,732297,"1"
13527,7736,188,-2070,-48,-39,-19,732307,"1"
13528,7670,130,-2112,-37,-40,-24,732317,"1"
13529,7708,178,-2128,-53,-21,-11,732327,"1"
13530,7740,152,-2136,-61,-32,-17,732337,"1"
13531,8308,-238,-1216,-90,-10,-5,691597,"2"
13532,8318,-186,-1294,-48,7,-19,691607,"2"
13533,8280,-178,-1190,-53,-3,-9,691617,"2"
13534,8284,-174,-1188,-66,18,-11,691627,"2"
13535,8284,-180,-1238,-78,0,-5,691637,"2"
13531,7736,194,-2092,-69,-23,-21,732347,"1"
13532,7668,188,-2080,-65,-28,-29,732357,"1"
13533,7750,198,-2080,-67,-23,-29,732367,"1"
13534,7614,152,-2120,-77,-12,-13,732377,"1"
13535,7636,154,-2092,-74,-15,-24,732387,"1"
13536,8306,-214,-1262,-88,6,-9,691647,"2"
13537,8284,-188,-1282,-95,14,-28,691657,"2"
13538,8276,-190,-1272,-79,13,-33,691667,"2"
13539,8318,-196,-1226,-85,18,-33,691677,"2"
13540,8330,-186,-1248,-96,10,-35,691687,"2"
13536,7726,194,-2044,-71,-22,-21,732397,"1"
13537,7688,190,-2106,-85,-11,-26,732407,"1"
13538,7652,200,-2088,-73,-21,-21,732417,"1"
13539,7678,224,-2134,-67,-23,-33,732427,"1"
13540,7676,220,-2102,-91,-28,-12,732437,"1"
13541,8236,-228,-1250,-104,-5,-35,691697,"2"
13542,8268,-198,-1248,-75,6,-49,691707,"2"
13543,8272,-168,-1294,-75,11,-37,691717,"2"
13544,8260,-140,-1232,-75,-10,-32,691727,"2"
13545,8268,-154,-1308,-64,-11,-31,691737,"2"
13541,7636,194,-2046,-97,-44,-8,732447,"1"
13542,7680,180,-2078,-108,-34,-17,732457,"1"
13543,7708,194,-2126,-94,-46,-22,732467,"1"
13544,7632,132,-2084,-93,-39,-15,732477,"1"
13545,7694,176,-2154,-86,-42,-36,732487,"1"
13546,8300,-170,-1218,-64,-2,-41,691747,"2"
13547,8288,-164,-1224,-52,-23,-47,691757,"2"
13548,8312,-192,-1268,-30,-16,-29,691767,"2"
13549,8296,-154,-1246,-24,-25,-48,691777,"2"
13550,8280,-190,-1212,-32,-11,-49,691787,"2"
13546,7682,220,-2114,-101,-36,-25,732497,"1"
13547,7586,180,-2112,-92,-32,-29,732507,"1"
13548,7674,128,-2154,-108,-43,-22,732517,"1"
13549,7728,152,-2126,-114,-34,-20,732527,"1"
13550,7656,176,-2140,-101,-31,-28,732537,"1"
13551,8284,-164,-1292,-38,-17,-40,691797,"2"
13552,8238,-148,-1220,-62,-15,-49,691807,"2"
13553,8290,-96,-1286,-80,-6,-59,691817,"2"
13554,8300,-158,-1296,-65,1,-39,691827,"2"
13555,8294,-196,-1246,-66,-24,-49,691837,"2"
13551,7638,158,-2116,-107,-17,-34,732547,"1"
13552,7692,198,-2120,-102,-15,-44,732557,"1"
13553,7658,202,-2104,-108,-13,-44,732567,"1"
13554,7710,196,-2056,-117,-12,-24,732577,"1"
13555,7732,166,-2082,-115,-6,-38,732587,"1"
13556,8308,-188,-1232,-64,0,-51,691847,"2"
13557,8282,-124,-1248,-64,2,-50,691857,"2"
13558,8270,-194,-1192,-59,8,-52,691867,"2"
13559,8298,-178,-1320,-48,3,-56,691877,"2"
13560,8300,-186,-1256,-38,12,-41,691887,"2"
13556,7642,100,-2182,-117,6,-28,732597,"1"
13557,7662,174,-2088,-98,1,-21,732607,"1"
13558,7676,194,-2174,-110,-19,-31,732617,"1"
13559,7658,244,-2102,-116,-3,-51,732627,"1"
13560,7668,150,-2076,-120,-9,-42,732637,"1"
13561,8254,-212,-1204,-25,-7,-53,691897,"2"
13562,8258,-122,-1180,-9,-13,-53,691907,"2"
13563,8282,-146,-1244,12,-8,-41,691917,"2"
13564,8298,-144,-1252,17,-19,-41,691927,"2"
13565,8300,-148,-1246,2,-37,-44,691937,"2"
13561,7684,146,-2172,-131,0,-20,732647,"1"
13562,7660,162,-2134,-140,-6,-34,732657,"1"
13563,7732,156,-2048,-126,2,-20,732667,"1"
13564,7672,138,-2096,-99,-2,-30,732677,"1"
13565,7714,176,-2116,-62,16,-28,732687,"1"
13566,8290,-90,-1258,-17,5,-31,691947,"2"
13567,8292,-156,-1292,-12,-7,-37,691957,"2"
13568,8264,-156,-1256,-20,-2,-49,691967,"2"
13569,8250,-120,-1286,-13,-11,-36,691977,"2"
13570,8272,-196,-1234,-4,0,-33,691987,"2"
13566,7654,188,-2138,-40,12,-42,732697,"1"
13567,7728,180,-2088,-59,32,-40,732707,"1"
13568,7690,140,-2180,-59,33,-31,732717,"1"
13569,7642,130,-2084,-49,43,-32,732727,"1"
13570,7696,200,-2106,-54,55,-39,732737,"1"
13571,8292,-212,-1210,50,15,-23,691997,"2"
13572,8318,-162,-1318,108,25,-29,692007,"2"
13573,8282,-80,-1308,110,25,-44,692017,"2"
13574,8320,-104,-1270,55,27,-41,692027,"2"
13575,8234,-100,-1240,-27,31,-25,692037,"2"
13571,7644,192,-2132,-49,47,-44,732747,"1"
13572,7640,180,-2166,-26,43,-41,732757,"1"
13573,7680,170,-2080,-26,42,-35,732767,"1"
13574,7718,230,-2072,-30,48,-44,732777,"1"
13575,7644,142,-2134,-39,47,-39,732787,"1"
13576,8246,-166,-1188,-66,25,-21,692047,"2"
13577,8318,-180,-1226,-59,35,-36,692057,"2"
13578,8292,-222,-1210,-15,43,-49,692067,"2"
13579,8276,-98,-1240,-10,9,-34,692077,"2"
13580,8294,-74,-1212,-43,22,-26,692087,"2"
13576,7688,188,-2152,-39,36,-33,732797,"1"
13577,7702,204,-2136,-33,36,-34,732807,"1"
13578,7660,198,-2128,-27,44,-41,732817,"1"
13579,7648,196,-2086,-29,47,-28,732827,"1"
13580,7716,226,-2140,-48,26,-20,732837,"1"
13581,8292,-142,-1250,-31,42,-10,692097,"2"
13582,8310,-188,-1206,-21,37,-30,692107,"2"
13583,8290,-158,-1250,7,25,-38,692117,"2"
13584,8294,-112,-1228,13,25,-37,692127,"2"
13585,8270,-148,-1266,3,25,-27,692137,"2"
13581,7624,242,-2074,-32,17,-30,732847,"1"
13582,7666,212,-2178,-17,18,-11,732857,"1"
13583,7666,206,-2098,4,31,-40,732867,"1"
13584,7666,230,-2082,12,20,-19,732877,"1"
13585,7672,166,-2114,-22,35,-42,732887,"1"
13586,8326,-106,-1242,-5,33,-29,692147,"2"
13587,8306,-142,-1264,-4,25,-31,692157,"2"
13588,8302,-116,-1188,9,6,-29,692167,"2"
13589,8284,-138,-1254,-7,8,-30,692177,"2"
13590,8332,-118,-1174,-20,11,-29,692187,"2"
13586,7746,274,-2138,-19,32,-29,732897,"1"
13587,7660,184,-2096,-22,35,-37,732907,"1"
13588,7592,208,-2076,-34,35,-30,732917,"1"
13589,7684,216,-2132,-34,48,-43,732927,"1"
13590,7684,214,-2172,-45,42,-41,732937,"1"
13591,8296,-174,-1200,-28,-2,-21,692197,"2"
13592,8276,-146,-1208,-23,-3,-39,692207,"2"
13593,8270,-138,-1196,-6,5,-30,692217,"2"
13594,8308,-160,-1232,5,12,-25,692227,"2"
13595,8302,-180,-1238,0,18,-33,692237,"2"
13591,7630,186,-2118,-34,48,-36,732947,"1"
13592,7680,210,-2188,-23,66,-35,732957,"1"
13593,7764,208,-2150,-5,90,-39,732967,"1"
13594,7686,184,-2070,1,85,-42,732977,"1"
13595,7810,176,-2174,11,108,-47,732987,"1"
13596,8208,-108,-1282,5,58,-43,692247,"2"
13597,8380,-92,-1228,-16,50,-42,692257,"2"
13598,8330,-92,-1242,-38,44,-42,692267,"2"
13599,8432,-10,-1288,-48,86,-37,692277,"2"
13600,8376,28,-1276,-113,72,-22,692287,"2"
13596,7794,162,-2122,47,107,-53,732997,"1"
13597,7788,124,-2096,70,134,-40,733007,"1"
13598,7734,146,-2214,69,120,-45,733017,"1"
13599,7730,190,-2086,77,139,-26,733027,"1"
13600,7546,310,-2120,45,131,-15,733037,"1"
13601,8338,-14,-1266,-137,90,-19,692297,"2"
13602,8282,-152,-1238,-116,115,-16,692307,"2"
13603,8278,-260,-1288,-80,130,-9,692317,"2"
13604,8266,-164,-1182,-57,152,-13,692327,"2"
13605,8194,-202,-1254,-67,160,-19,692337,"2"
13601,7518,392,-2028,-7,134,-18,733047,"1"
13602,7544,386,-2072,-56,117,1,733057,"1"
13603,7472,370,-2092,-99,127,5,733067,"1"
13604,7550,362,-2058,-103,138,6,733077,"1"
13605,7654,344,-2070,-102,159,15,733087,"1"
13606,8158,-218,-1302,-99,206,-7,692347,"2"
13607,8264,-182,-1252,-128,217,-23,692357,"2"
13608,8308,-160,-1290,-123,268,-38,692367,"2"
13609,8302,-124,-1296,-110,267,-48,692377,"2"
13610,8258,-142,-1206,-91,265,-43,692387,"2"
13606,7662,250,-2104,-110,182,-14,733097,"1"
13607,7688,176,-2096,-113,199,-45,733107,"1"
13608,7770,144,-2030,-106,213,-41,733117,"1"
13609,7784,104,-2012,-123,235,-38,733127,"1"
13610,7814,64,-2028,-121,251,-52,733137,"1"
13611,8294,-192,-1132,-39,293,-67,692397,"2"
13612,8370,-110,-1136,-15,271,-58,692407,"2"
13613,8418,-46,-1120,5,234,-59,692417,"2"
13614,8390,24,-1100,-23,205,-59,692427,"2"
13615,8334,-28,-1040,-65,180,-65,692437,"2"
13611,7872,62,-2022,-107,237,-61,733147,"1"
13612,7784,102,-2058,-35,247,-83,733157,"1"
13613,7734,154,-2108,27,230,-106,733167,"1"
13614,7750,276,-2036,45,246,-121,733177,"1"
13615,7678,298,-2062,23,243,-87,733187,"1"
13616,8326,-154,-1166,-66,161,-53,692447,"2"
13617,8260,-150,-1156,-35,126,-62,692457,"2"
13618,8220,-212,-1154,-16,127,-75,692467,"2"
13619,8192,-268,-1272,61,124,-81,692477,"2"
13620,8156,-230,-1226,131,113,-93,692487,"2"
13616,7566,280,-2034,11,270,-103,733197,"1"
13617,7668,254,-1924,-30,262,-102,733207,"1"
13618,7694,234,-1996,-16,252,-107,733217,"1"
13619,7590,168,-1944,-6,232,-118,733227,"1"
13620,7706,234,-1898,25,204,-123,733237,"1"
13621,8232,-118,-1172,116,120,-97,692497,"2"
13622,8266,-68,-1204,64,90,-95,692507,"2"
13623,8276,-16,-1148,17,95,-87,692517,"2"
13624,8230,-32,-1176,-21,68,-68,692527,"2"
13625,8234,18,-1044,-33,24,-25,692537,"2"
13621,7720,194,-1926,30,154,-106,733247,"1"
13622,7722,268,-1888,12,84,-104,733257,"1"
13623,7724,238,-1884,-25,38,-99,733267,"1"
13624,7724,250,-1888,-57,-22,-87,733277,"1"
13625,7664,346,-1832,-100,-90,-64,733287,"1"
13626,8304,22,-1126,-13,-17,4,692547,"2"
13627,8432,-156,-1052,85,-22,5,692557,"2"
13628,8446,-114,-1032,221,-25,-9,692567,"2"
13629,8424,98,-1074,196,-50,-20,692577,"2"
13630,8378,216,-1134,-7,-65,8,692587,"2"
13626,7730,330,-1836,-140,-134,-16,733297,"1"
13627,7898,308,-1978,-181,-174,3,733307,"1"
13628,7778,198,-2008,-157,-194,23,733317,"1"
13629,7772,126,-1994,-95,-228,9,733327,"1"
13630,7798,168,-1922,-55,-242,-29,733337,"1"
13631,8378,184,-1128,-234,-76,50,692597,"2"
13632,8228,62,-1136,-357,-117,64,692607,"2"
13633,8298,-232,-1138,-228,-119,80,692617,"2"
13634,8324,-324,-1200,36,-90,50,692627,"2"
13635,8326,-262,-1236,244,-36,38,692637,"2"
13631,7754,190,-2020,-67,-263,-32,733347,"1"
13632,7634,262,-1950,-146,-296,-27,733357,"1"
13633,7574,330,-1972,-253,-308,-27,733367,"1"
13634,7532,336,-2048,-345,-315,-28,733377,"1"
13635,7564,350,-2074,-407,-300,-38,733387,"1"
13636,8292,-216,-1196,299,2,7,692647,"2"
13637,8264,-60,-1218,179,27,1,692657,"2"
13638,8234,-56,-1276,-73,42,-12,692667,"2"
13639,8224,-138,-1218,-236,61,-11,692677,"2"
13640,8128,-168,-1230,-288,57,-29,692687,"2"
13636,7598,364,-2096,-433,-304,-62,733397,"1"
13637,7674,356,-2098,-425,-279,-82,733407,"1"
13638,7554,234,-2122,-407,-274,-95,733417,"1"
13639,7516,334,-2104,-406,-250,-129,733427,"1"
13640,7592,290,-2078,-460,-272,-146,733437,"1"
13641,8224,-346,-1186,-185,64,-60,692697,"2"
13642,8230,-374,-1154,1,117,-90,692707,"2"
13643,8254,-248,-1144,153,92,-112,692717,"2"
13644,8236,-148,-1150,152,49,-136,692727,"2"
13645,8316,-36,-1064,101,3,-152,692737,"2"
13641,7518,348,-2132,-532,-288,-144,733447,"1"
13642,7590,362,-1990,-622,-299,-138,733457,"1"
13643,7670,338,-1958,-740,-350,-116,733467,"1"
13644,7622,300,-1942,-820,-421,-93,733477,"1"
13645,7626,228,-2056,-811,-491,-72,733487,"1"
13646,8362,64,-960,-49,-101,-156,692747,"2"
13647,8402,-92,-998,-81,-120,-150,692757,"2"
13648,8398,-92,-922,-63,-172,-188,692767,"2"
13649,8500,-64,-978,-46,-196,-203,692777,"2"
13650,8330,-106,-1142,1,-227,-219,692787,"2"
13646,7678,336,-2020,-771,-576,-100,733497,"1"
13647,7546,336,-1942,-712,-648,-88,733507,"1"
13648,7540,292,-2088,-644,-710,-85,733517,"1"
13649,7574,370,-2056,-569,-820,-95,733527,"1"
13650,7558,474,-2022,-570,-888,-83,733537,"1"
13651,8398,30,-944,-29,-239,-253,692797,"2"
13652,8354,-12,-1104,-145,-240,-242,692807,"2"
13653,8360,30,-1242,-196,-273,-281,692817,"2"
13654,8330,8,-1194,-286,-243,-291,692827,"2"
13655,8302,-108,-1128,-324,-224,-281,692837,"2"
13651,7532,456,-1928,-529,-931,-79,733547,"1"
13652,7704,562,-1876,-503,-978,-87,733557,"1"
13653,7638,548,-2262,-564,-955,-94,733567,"1"
13654,7660,186,-2442,-523,-855,-120,733577,"1"
13655,7692,196,-2584,-442,-702,-187,733587,"1"
13656,8306,-76,-1200,-288,-214,-317,692847,"2"
13657,8322,-98,-1118,-232,-215,-320,692857,"2"
13658,8302,26,-1180,-212,-191,-307,692867,"2"
13659,8322,38,-1278,-203,-218,-321,692877,"2"
13660,8356,-38,-1136,-182,-256,-284,692887,"2"
13656,7700,504,-2678,-413,-536,-218,733597,"1"
13657,7674,468,-2574,-509,-310,-215,733607,"1"
13658,7892,254,-2604,-521,-104,-188,733617,"1"
13659,7880,-10,-2644,-475,30,-260,733627,"1"
13660,7728,-18,-2608,-275,168,-377,733637,"1"
13661,8256,6,-1100,-195,-275,-276,692897,"2"
13662,8198,78,-1124,-235,-321,-277,692907,"2"
13663,8312,32,-1104,-249,-394,-281,692917,"2"
13664,8334,30,-1154,-274,-457,-283,692927,"2"
13665,8254,20,-1098,-358,-519,-297,692937,"2"
13661,7584,294,-2398,-153,284,-476,733647,"1"
13662,7646,334,-2364,-202,352,-536,733657,"1"
13663,7764,330,-2338,-184,412,-537,733667,"1"
13664,7714,374,-2308,-184,460,-536,733677,"1"
13665,7738,536,-2206,-219,481,-489,733687,"1"
13666,8262,110,-1098,-464,-580,-284,692947,"2"
13667,8224,82,-1178,-528,-671,-290,692957,"2"
13668,8120,0,-1192,-505,-737,-287,692967,"2"
13669,8214,-146,-1206,-375,-828,-287,692977,"2"
13670,8118,-108,-1172,-184,-900,-310,692987,"2"
13666,7728,440,-2106,-206,489,-508,733697,"1"
13667,7698,462,-2166,63,533,-584,733707,"1"
13668,7688,546,-2130,232,541,-618,733717,"1"
13669,7578,490,-2114,301,511,-634,733727,"1"
13670,7694,328,-2210,389,433,-611,733737,"1"
13671,8042,-160,-1136,14,-1015,-288,692997,"2"
13672,8092,-36,-1138,161,-1097,-275,693007,"2"
13673,8204,34,-976,227,-1224,-255,693017,"2"
13674,8176,2,-1200,286,-1315,-254,693027,"2"
13675,8142,132,-1344,298,-1447,-234,693037,"2"
13671,7636,394,-2226,497,364,-640,733747,"1"
13672,7566,400,-2138,544,274,-649,733757,"1"
13673,7452,452,-2058,544,126,-615,733767,"1"
13674,7534,686,-2066,460,99,-611,733777,"1"
13675,7548,744,-2088,238,34,-561,733787,"1"
13676,8204,222,-1318,241,-1558,-218,693047,"2"
13677,8220,170,-1338,142,-1692,-210,693057,"2"
13678,8086,216,-1358,89,-1831,-191,693067,"2"
13679,8060,228,-1402,58,-1977,-171,693077,"2"
13680,8088,176,-1448,39,-2124,-155,693087,"2"
13676,7626,750,-2084,98,-4,-474,733797,"1"
13677,7802,716,-1848,-22,-28,-472,733807,"1"
13678,7970,736,-1428,-12,-138,-489,733817,"1"
13679,7908,900,-1592,-307,-275,-370,733827,"1"
13680,7586,318,-2534,-157,-479,-346,733837,"1"
13681,8042,124,-1386,96,-2274,-155,693097,"2"
13682,8018,168,-1464,97,-2477,-134,693107,"2"
13683,8114,238,-1400,75,-2687,-130,693117,"2"
13684,8228,374,-1328,30,-2918,-104,693127,"2"
13685,8420,464,-1434,-74,-3077,-61,693137,"2"
13681,7612,-182,-2426,227,-474,-502,733847,"1"
13682,7418,618,-2100,278,-492,-576,733857,"1"
13683,7486,1022,-2184,185,-723,-553,733867,"1"
13684,7726,1028,-2142,-317,-628,-403,733877,"1"
13685,7636,810,-2260,-632,-652,-264,733887,"1"
13686,8394,540,-1582,-191,-3271,-3,693147,"2"
13687,8414,470,-1504,-379,-3390,77,693157,"2"
13688,8222,506,-1750,-543,-3551,158,693167,"2"
13689,8172,522,-1902,-704,-3735,227,693177,"2"
13690,8260,248,-1938,-786,-3909,299,693187,"2"
13686,7640,560,-2302,-523,-658,-307,733897,"1"
13687,7438,632,-2198,-218,-733,-415,733907,"1"
13688,7302,628,-2314,85,-774,-564,733917,"1"
13689,7164,424,-2362,52,-854,-481,733927,"1"
13690,7416,1148,-2234,-199,-843,-483,733937,"1"
13691,8406,410,-1984,-847,-4017,323,693197,"2"
13692,8832,402,-1856,-1103,-3833,340,693207,"2"
13693,9172,222,-1548,-1459,-3510,407,693217,"2"
13694,9116,570,-2290,-1772,-3543,398,693227,"2"
13695,9640,846,-1976,-2054,-3412,375,693237,"2"
13691,7530,1236,-2294,-580,-870,-348,733947,"1"
13692,7580,1002,-2376,-826,-854,-224,733957,"1"
13693,7592,796,-2426,-761,-861,-199,733967,"1"
13694,7728,774,-2244,-566,-926,-211,733977,"1"
13695,7624,774,-2336,-341,-1066,-196,733987,"1"
13696,9880,1062,-1734,-2331,-3562,236,693247,"2"
13697,9834,632,-1652,-2401,-3510,5,693257,"2"
13698,9488,594,-1772,-2080,-3622,-275,693267,"2"
13699,9294,318,-2050,-1952,-3927,-391,693277,"2"
13700,9120,-52,-2810,-1685,-4337,-422,693287,"2"
13696,7550,802,-2352,-292,-1092,-167,733997,"1"
13697,7418,886,-2406,-390,-1147,-144,734007,"1"
13698,7510,946,-2364,-535,-1160,-79,734017,"1"
13699,7618,858,-2596,-667,-1176,-1,734027,"1"
13700,7618,758,-2566,-649,-1159,23,734037,"1"
13701,9578,-620,-2834,-1388,-4512,-282,693297,"2"
13702,9656,-616,-2364,-815,-4698,-308,693307,"2"
13703,9468,-570,-2616,-232,-4855,-381,693317,"2"
13704,9418,-802,-2562,248,-4880,-374,693327,"2"
13705,9456,-918,-2448,549,-4841,-249,693337,"2"
13701,7480,668,-2622,-465,-1152,-16,734047,"1"
13702,7572,588,-2682,-301,-1113,-25,734057,"1"
13703,7724,760,-2688,-268,-1076,-7,734067,"1"
13704,7640,744,-2666,-218,-1049,-15,734077,"1"
13705,7558,672,-2768,-177,-983,-17,734087,"1"
13706,9474,-990,-2518,803,-4507,-66,693347,"2"
13707,10114,-184,322,1110,-3867,-50,693357,"2"
13708,9652,1142,2584,1255,-3044,-189,693367,"2"
13709,8536,1352,2478,812,-2193,-296,693377,"2"
13710,8742,858,2320,165,-1080,-39,693387,"2"
13706,7484,754,-2792,-100,-909,-36,734097,"1"
13707,7544,884,-2804,-81,-823,-60,734107,"1"
13708,7494,820,-2770,-62,-756,-53,734117,"1"
13709,7430,754,-2786,27,-719,-84,734127,"1"
13710,7400,764,-2750,81,-659,-110,734137,"1"
13711,9156,832,3694,39,151,111,693397,"2"
13712,8408,886,3614,88,1398,157,693407,"2"
13713,8256,1040,3520,4,2637,227,693417,"2"
13714,8270,862,3496,-262,3935,415,693427,"2"
13715,8514,758,3360,-347,5156,509,693437,"2"
13711,7470,812,-2812,68,-626,-115,734147,"1"
13712,7434,758,-2812,76,-587,-127,734157,"1"
13713,7432,792,-2838,62,-541,-151,734167,"1"
13714,7338,876,-2738,1,-530,-140,734177,"1"
13715,7462,922,-2702,-82,-567,-109,734187,"1"
13716,8842,784,3124,-215,6353,431,693447,"2"
13717,9012,1002,2702,-117,7426,260,693457,"2"
13718,9226,1276,2130,-225,8386,115,693467,"2"
13719,9374,1232,1668,-418,9194,5,693477,"2"
13720,9414,1190,1090,-576,9928,-135,693487,"2"
13716,7406,852,-2570,-214,-646,-48,734197,"1"
13717,7390,878,-2514,-292,-814,20,734207,"1"
13718,7334,972,-2476,-331,-1005,49,734217,"1"
13719,7310,864,-2498,-300,-1167,55,734227,"1"
13720,7322,842,-2596,-192,-1354,67,734237,"1"
13721,9592,1148,570,-689,10436,-325,693497,"2"
13722,9880,872,484,-728,10852,-469,693507,"2"
13723,10166,780,320,-726,11082,-639,693517,"2"
13724,10556,510,8,-688,11471,-745,693527,"2"
13725,10962,516,-488,-583,11964,-850,693537,"2"
13721,7432,840,-2728,-91,-1506,64,734247,"1"
13722,7412,850,-2678,-23,-1634,68,734257,"1"
13723,7452,916,-2842,-27,-1759,92,734267,"1"
13724,7404,784,-2842,-8,-1815,127,734277,"1"
13725,7532,768,-2940,-7,-1887,153,734287,"1"
13726,11018,480,-1148,-492,12361,-905,693547,"2"
13727,10930,584,-1382,-530,12502,-939,693557,"2"
13728,10792,682,-1722,-657,12563,-960,693567,"2"
13729,10708,586,-1978,-830,12522,-929,693577,"2"
13730,10544,286,-2300,-1051,12384,-800,693587,"2"
13726,7684,656,-3064,64,-1914,141,734297,"1"
13727,7662,528,-3198,220,-1909,88,734307,"1"
13728,7618,526,-3270,393,-1900,35,734317,"1"
13729,7506,582,-3336,439,-1880,17,734327,"1"
13730,7482,640,-3288,492,-1848,-19,734337,"1"
13731,10350,-72,-2396,-1097,12196,-662,693597,"2"
13732,10252,-308,-2482,-938,12040,-520,693607,"2"
13733,10032,-486,-2514,-627,11811,-330,693617,"2"
13734,9722,-428,-2558,-212,11596,-197,693627,"2"
13735,9222,-122,-2704,317,11301,-207,693637,"2"
13731,7468,714,-3290,570,-1880,-33,734347,"1"
13732,7434,744,-3446,548,-1834,-8,734357,"1"
13733,7532,648,-3360,615,-1846,29,734367,"1"
13734,7490,754,-3368,764,-1859,4,734377,"1"
13735,7338,722,-3412,880,-1932,3,734387,"1"
13736,8554,402,-3008,636,10935,-433,693647,"2"
13737,8206,790,-3042,469,10247,-628,693657,"2"
13738,8076,594,-3402,73,9499,-782,693667,"2"
13739,8032,404,-3326,-133,8759,-973,693677,"2"
13740,7776,186,-3288,-125,7989,-1067,693687,"2"
13736,7478,572,-3420,985,-1944,35,734397,"1"
13737,7468,626,-3540,1085,-2040,51,734407,"1"
13738,7394,470,-3542,1181,-2137,66,734417,"1"
13739,7504,316,-3426,1281,-2247,53,734427,"1"
13740,7760,464,-3296,1437,-2372,78,734437,"1"
13741,7326,-4,-3302,-92,7135,-1038,693697,"2"
13742,6784,-272,-3504,-149,6178,-816,693707,"2"
13743,6302,-432,-3794,-436,5163,-367,693717,"2"
13744,5946,-132,-4176,-899,4042,205,693727,"2"
13745,5654,146,-4618,-1426,2726,617,693737,"2"
13741,7814,454,-3512,1475,-2481,142,734447,"1"
13742,7836,360,-3644,1348,-2535,201,734457,"1"
13743,7732,362,-3552,1346,-2697,269,734467,"1"
13744,7694,398,-3498,1433,-2874,335,734477,"1"
13745,7692,422,-3554,1524,-3068,399,734487,"1"
13746,5552,108,-4896,-1723,1306,806,693747,"2"
13747,5710,-308,-4884,-1540,-157,779,693757,"2"
13748,6150,-808,-4140,-1055,-1325,712,693767,"2"
13749,6066,-790,-4610,-449,-2423,685,693777,"2"
13750,6432,-568,-4620,37,-3417,674,693787,"2"
13746,7732,566,-3522,1555,-3278,438,734497,"1"
13747,7718,202,-3732,1554,-3462,562,734507,"1"
13748,7818,98,-3766,1654,-3628,621,734517,"1"
13749,7982,462,-3650,1857,-3834,648,734527,"1"
13750,8052,986,-3620,1856,-3993,685,734537,"1"
13751,6984,-574,-4316,233,-4214,816,693797,"2"
13752,7010,-750,-4444,525,-4918,978,693807,"2"
13753,7238,-914,-4046,1150,-5368,1082,693817,"2"
13754,7352,-978,-3888,1881,-5625,1148,693827,"2"
13755,6938,-560,-4584,2622,-5945,1129,693837,"2"
13751,8138,982,-3594,1750,-4140,730,734547,"1"
13752,8024,494,-3592,1873,-4353,751,734557,"1"
13753,7950,14,-3662,2157,-4592,828,734567,"1"
13754,8276,-300,-3612,2666,-4761,846,734577,"1"
13755,8750,430,-3758,2779,-5004,932,734587,"1"
13756,12520,-1390,8908,1679,-4600,1244,693847,"2"
13757,23896,-3558,32767,377,656,2488,693857,"2"
13758,13938,-2190,11564,4038,4159,2322,693867,"2"
13759,-1952,-76,-9798,7344,2504,1344,693877,"2"
13760,1616,-228,-5850,6598,-1874,110,693887,"2"
13756,8540,308,-3512,2674,-5110,1056,734597,"1"
13757,8032,-192,-3324,2769,-5295,999,734607,"1"
13758,7872,-768,-3238,2882,-5583,1094,734617,"1"
13759,8312,-626,-3204,2702,-5848,1351,734627,"1"
13760,8736,-152,-3010,2430,-6080,1612,734637,"1"
13761,12254,4546,430,8666,-2054,-1559,693897,"2"
13762,14122,6426,2826,3636,-2649,768,693907,"2"
13763,10766,1872,-2824,-357,-3970,3002,693917,"2"
13764,10032,1374,-1766,272,-4762,3226,693927,"2"
13765,10418,2248,-822,3282,-4281,2488,693937,"2"
13761,9040,156,-2606,2053,-6366,1852,734647,"1"
13762,9046,706,-2492,1872,-6638,1982,734657,"1"
13763,9006,1130,-2110,1977,-7046,1910,734667,"1"
13764,8970,1378,-1872,2563,-7647,1639,734677,"1"
13765,9032,1616,-1794,3417,-8266,1148,734687,"1"
13766,10570,3710,-306,4560,-4344,2347,693947,"2"
13767,10560,2386,-382,4394,-4271,2321,693957,"2"
13768,8962,304,520,3661,-4128,2388,693967,"2"
13769,7540,-1376,926,3327,-3836,2520,693977,"2"
13770,7048,-1574,1166,3295,-3774,2510,693987,"2"
13766,9186,1334,-1834,4257,-8920,661,734697,"1"
13767,9138,658,-3194,5146,-9637,181,734707,"1"
13768,10158,-1098,-3988,6293,-10496,128,734717,"1"
13769,11906,-1024,-3438,6889,-11086,532,734727,"1"
13770,12526,828,-2920,6529,-11258,939,734737,"1"
13771,7062,-1134,1712,2685,-3856,2241,693997,"2"
13772,7200,-746,1474,1556,-3756,1857,694007,"2"
13773,7772,142,322,57,-3733,1424,694017,"2"
13774,8694,944,124,-1961,-3781,1472,694027,"2"
13775,8986,820,640,-3544,-3781,1795,694037,"2"
13771,10952,910,-4568,5884,-11275,1499,734747,"1"
13772,10668,-354,-5586,5002,-10951,1948,734757,"1"
13773,10968,512,-5966,4191,-10672,1835,734767,"1"
13774,12404,440,-4146,3730,-9638,1493,734777,"1"
13775,10346,-926,-7536,2313,-9740,1654,734787,"1"
13776,8460,-374,870,-3615,-3874,1855,694047,"2"
13777,8060,-1604,1056,-1934,-3912,1613,694057,"2"
13778,8052,-2508,1148,811,-3917,1468,694067,"2"
13779,8372,-2478,730,3344,-3781,1405,694077,"2"
13780,8568,-1046,298,4891,-3583,1281,694087,"2"
13776,9434,-640,-6832,1830,-8915,1569,734797,"1"
13777,6772,-224,-2310,1632,-6793,1323,734807,"1"
13778,5224,-630,-3018,1550,-6721,986,734817,"1"
13779,8976,1200,1340,1862,-4186,282,734827,"1"
13780,10118,1316,2720,1284,-2122,-247,734837,"1"
13781,8954,430,18,4849,-3470,1245,694097,"2"
13782,8812,1806,2,2704,-3395,1224,694107,"2"
13783,8492,2338,132,-436,-3641,1246,694117,"2"
13784,8516,1064,202,-2937,-3978,1257,694127,"2"
13785,8358,-854,420,-3594,-4183,1195,694137,"2"
13781,8884,1486,2746,-368,177,-303,734847,"1"
13782,6396,1760,1226,-2010,1938,-304,734857,"1"
13783,5068,1018,-156,-3405,3493,-333,734867,"1"
13784,5174,598,-824,-4147,5176,-628,734877,"1"
13785,5600,-114,-942,-4256,6859,-1057,734887,"1"
13786,8336,-2140,476,-2453,-4243,1037,694147,"2"
13787,8286,-2714,40,-376,-4159,800,694157,"2"
13788,8618,-1958,-220,1463,-3999,535,694167,"2"
13789,8632,-872,-388,2266,-3843,412,694177,"2"
13790,8588,142,-564,1707,-3795,442,694187,"2"
13786,6650,-908,-1454,-4065,8293,-1547,734897,"1"
13787,7032,-1232,-962,-3654,10223,-1750,734907,"1"
13788,6884,-1272,-1146,-3058,11713,-1997,734917,"1"
13789,6042,-1434,-1614,-2517,12872,-2139,734927,"1"
13790,5950,-1212,-1996,-1987,14002,-2275,734937,"1"
13791,8658,730,-440,429,-3826,513,694197,"2"
13792,8668,-232,-510,-515,-3843,401,694207,"2"
13793,8344,-1172,-512,-681,-3807,437,694217,"2"
13794,8230,-1480,-570,-238,-3789,349,694227,"2"
13795,8140,-1372,-810,396,-3737,281,694237,"2"
13791,6190,-700,-2550,-1559,15029,-2500,734947,"1"
13792,6786,-570,-2926,-1338,16116,-2618,734957,"1"
13793,7336,-548,-3578,-1116,16924,-2696,734967,"1"
13794,7650,-570,-3892,-813,17632,-2796,734977,"1"
13795,7854,-514,-4268,-604,18255,-2889,734987,"1"
13796,8142,-1012,-1016,732,-3670,289,694247,"2"
13797,8298,-360,-1302,726,-3603,290,694257,"2"
13798,8346,-16,-1334,332,-3628,311,694267,"2"
13799,8370,-182,-1208,-108,-3574,425,694277,"2"
13800,8312,-662,-1198,-162,-3571,477,694287,"2"
13796,8222,-512,-4490,-614,18833,-2901,734997,"1"
13797,8536,-314,-4920,-810,19329,-2906,735007,"1"
13798,8870,-196,-5180,-1278,19765,-2791,735017,"1"
13799,9528,-122,-5414,-1821,20175,-2617,735027,"1"
13800,10478,-392,-5602,-2183,20553,-2403,735037,"1"
13801,8408,-928,-1174,154,-3522,473,694297,"2"
13802,8312,-694,-1532,416,-3544,475,694307,"2"
13803,8468,-574,-1374,517,-3511,487,694317,"2"
13804,8356,-230,-1612,229,-3547,576,694327,"2"
13805,8386,-302,-1630,80,-3603,557,694337,"2"
13801,11230,-920,-6076,-2175,20932,-2073,735047,"1"
13802,12000,-1576,-6718,-1847,21191,-1696,735057,"1"
13803,12346,-1732,-7426,-1416,21261,-1379,735067,"1"
13804,12242,-1374,-7708,-574,21248,-1351,735077,"1"
13805,11848,-1568,-7848,765,21110,-1658,735087,"1"
13806,8436,-550,-1572,-23,-3671,597,694347,"2"
13807,8402,-414,-1886,-93,-3729,643,694357,"2"
13808,8496,-96,-1844,-283,-3774,665,694367,"2"
13809,8578,-164,-1766,-551,-3884,690,694377,"2"
13810,8478,-388,-1842,-838,-4051,746,694387,"2"
13806,11376,-1772,-7940,2526,20872,-2230,735097,"1"
13807,11056,-1192,-7852,4032,20184,-2995,735107,"1"
13808,11096,-468,-8734,4581,19496,-3646,735117,"1"
13809,11526,634,-9904,4498,18634,-4286,735127,"1"
13810,11124,742,-10484,3388,17655,-4550,735137,"1"
13811,8522,-364,-1944,-921,-4227,769,694397,"2"
13812,9008,-274,-1620,-955,-4402,761,694407,"2"
13813,8896,-300,-1840,-1118,-4592,909,694417,"2"
13814,8604,-20,-1830,-1200,-4889,899,694427,"2"
13815,8616,-408,-1748,-1236,-5255,924,694437,"2"
13811,10648,302,-11220,1650,16542,-4250,735147,"1"
13812,9414,-332,-12780,-460,15106,-3552,735157,"1"
13813,7402,-36,-14802,-2768,13253,-2892,735167,"1"
13814,4194,-890,-17754,-4972,10179,-2334,735177,"1"
13815,-572,-2962,-21198,-6448,5392,-1095,735187,"1"
13816,8708,-564,-2000,-1089,-5585,888,694447,"2"
13817,8798,-670,-2010,-901,-5904,839,694457,"2"
13818,8834,-600,-2242,-698,-6180,787,694467,"2"
13819,8944,-396,-2476,-482,-6424,717,694477,"2"
13820,8990,-102,-2608,-197,-6685,578,694487,"2"
13816,-2456,-3868,-20360,-6117,-191,402,735197,"1"
13817,128,-1216,-15964,-4532,-4898,1146,735207,"1"
13818,4576,1110,-12974,-4116,-7415,1241,735217,"1"
13819,10090,2096,-6852,-3319,-7239,792,735227,"1"
13820,16832,4970,11294,160,-3384,-864,735237,"1"
13821,9106,50,-2552,53,-6941,440,694497,"2"
13822,9356,84,-2682,-64,-7166,271,694507,"2"
13823,9814,124,-2344,-723,-7344,273,694517,"2"
13824,10176,-40,-2074,-1736,-7601,311,694527,"2"
13825,10260,-528,-1930,-2505,-7821,359,694537,"2"
13821,15892,5972,15756,792,-1795,-1601,735247,"1"
13822,2758,-832,-1628,-3897,-2250,-867,735257,"1"
13823,2840,-6878,-6392,-1671,-3956,-274,735267,"1"
13824,9470,-8720,-2912,2155,-5214,892,735277,"1"
13825,14528,-5224,2166,3670,-5392,461,735287,"1"
13826,10194,-352,-1792,-3015,-8059,421,694547,"2"
13827,10102,406,-1684,-3434,-8355,447,694557,"2"
13828,10014,1140,-1324,-4001,-8764,502,694567,"2"
13829,10248,1330,-832,-4684,-9191,582,694577,"2"
13830,10516,1092,-562,-5259,-9811,757,694587,"2"
13826,12506,-184,-712,3248,-5907,-1008,735297,"1"
13827,9854,922,-3322,1795,-6411,-1419,735307,"1"
13828,8740,6384,-5908,803,-7517,-2313,735317,"1"
13829,10126,4238,-4530,-3388,-6914,-2174,735327,"1"
13830,12266,-2126,-1620,-6477,-6025,-985,735337,"1"
13831,10938,674,256,-5364,-10225,825,694597,"2"
13832,11346,924,790,-5754,-10581,1164,694607,"2"
13833,12070,1752,928,-6826,-10767,1577,694617,"2"
13834,13280,2670,834,-8643,-11229,1721,694627,"2"
13835,13596,1504,-306,-10433,-12280,1578,694637,"2"
13831,10488,-2680,-1200,-6985,-5606,-519,735347,"1"
13832,8502,-2354,-1026,-6495,-5204,66,735357,"1"
13833,7226,-552,-2102,-4537,-5049,-329,735367,"1"
13834,7292,-504,-1896,-1146,-5235,-1082,735377,"1"
13835,7396,258,-564,970,-5394,-1366,735387,"1"
13836,13828,-1298,-666,-9790,-13640,1230,694647,"2"
13837,13988,-3112,-1318,-7565,-13660,300,694657,"2"
13838,13364,-4348,-3832,-5794,-13658,-157,694667,"2"
13839,14312,-3346,-4742,-4040,-13211,-454,694677,"2"
13840,15130,-2786,-3270,-1288,-12032,-678,694687,"2"
13836,6956,2182,-278,1140,-5252,-1378,735397,"1"
13837,7676,3258,-714,-110,-4627,-1063,735407,"1"
13838,9252,2800,-1130,-1649,-3810,-717,735417,"1"
13839,9790,1158,-1610,-2588,-2930,-473,735427,"1"
13840,9254,-346,-1310,-2672,-2472,-433,735437,"1"
13841,13666,-2872,-4392,659,-10891,-573,694697,"2"
13842,11354,-2256,-4592,1722,-10003,-374,694707,"2"
13843,9644,-102,-3212,2906,-7763,-491,694717,"2"
13844,6366,1122,-3528,3612,-6245,-1013,694727,"2"
13845,8412,2456,1486,2889,-4157,-1458,694737,"2"
13841,8272,-1250,-788,-2089,-2376,-479,735447,"1"
13842,7164,-500,-144,-1018,-2832,-581,735457,"1"
13843,7042,1282,342,-390,-3441,-651,735467,"1"
13844,7298,2354,380,-578,-3946,-557,735477,"1"
13845,7354,2428,242,-1268,-4319,-245,735487,"1"
13846,8908,2722,3758,2083,-1957,-1820,694747,"2"
13847,7380,1376,2978,985,213,-1615,694757,"2"
13848,5656,790,1670,464,1949,-1557,694767,"2"
13849,5288,34,498,185,3447,-1714,694777,"2"
13850,5544,-140,-724,222,5175,-1934,694787,"2"
13846,7332,1798,-146,-1757,-4621,60,735497,"1"
13847,7390,854,-400,-1734,-4945,179,735507,"1"
13848,7994,366,-1158,-1304,-5146,95,735517,"1"
13849,8436,508,-1392,-987,-5157,56,735527,"1"
13850,8328,798,-1324,-1012,-5192,216,735537,"1"
13851,5840,-106,-1224,526,7031,-2036,694797,"2"
13852,6268,128,-868,694,8866,-2040,694807,"2"
13853,6440,486,-726,460,10721,-2064,694817,"2"
13854,6362,782,-854,-275,12332,-1957,694827,"2"
13855,6524,434,-1100,-1112,13750,-1727,694837,"2"
13851,8040,1142,-1734,-1273,-5137,431,735547,"1"
13852,8012,1046,-1826,-1427,-5027,592,735557,"1"
13853,7946,974,-1644,-1602,-4933,743,735567,"1"
13854,7838,908,-1810,-1663,-4841,792,735577,"1"
13855,8014,536,-1882,-1600,-4761,792,735587,"1"
13856,6630,-32,-1356,-1747,15172,-1428,694847,"2"
13857,6694,-348,-1762,-1941,16452,-1114,694857,"2"
13858,7000,-554,-2134,-1726,17680,-893,694867,"2"
13859,7642,-430,-2708,-1345,18882,-723,694877,"2"
13860,8350,-6,-2876,-1107,19865,-641,694887,"2"
13856,8062,156,-1984,-1244,-4739,723,735597,"1"
13857,8172,-84,-1978,-769,-4707,605,735607,"1"
13858,8052,206,-1944,-412,-4607,508,735617,"1"
13859,7944,654,-1932,-151,-4553,429,735627,"1"
13860,7802,934,-1988,-99,-4427,373,735637,"1"
13861,8792,48,-3476,-1209,20572,-495,694897,"2"
13862,9144,-606,-3688,-975,21159,-287,694907,"2"
13863,9602,-1426,-4132,13,21794,-80,694917,"2"
13864,10206,-1810,-4864,1646,22398,-62,694927,"2"
13865,11258,-1716,-5318,3517,23069,-266,694937,"2"
13861,7628,900,-2224,-74,-4370,336,735647,"1"
13862,7716,914,-2374,75,-4237,219,735657,"1"
13863,7712,708,-2614,228,-4179,110,735667,"1"
13864,7670,206,-2846,537,-4124,40,735677,"1"
13865,7720,360,-2768,738,-4123,-22,735687,"1"
13866,12458,-1124,-5492,4883,23818,-564,694947,"2"
13867,13222,-268,-6304,5493,24470,-960,694957,"2"
13868,13688,410,-7538,5617,24758,-1534,694967,"2"
13869,14088,-80,-8256,5209,24837,-2053,694977,"2"
13870,14056,-408,-8734,4606,24765,-2490,694987,"2"
13866,7766,474,-2640,1019,-4227,-109,735697,"1"
13867,7858,690,-2494,1070,-4270,-157,735707,"1"
13868,7826,812,-2640,973,-4506,-101,735717,"1"
13869,8076,674,-2398,968,-4679,-43,735727,"1"
13870,8224,414,-2268,1084,-4936,-9,735737,"1"
13871,13088,650,-9854,3514,24175,-2902,694997,"2"
13872,12744,1240,-10034,1295,23034,-3122,695007,"2"
13873,12676,306,-10910,-1568,21568,-2612,695017,"2"
13874,12730,-2192,-11324,-3309,19841,-1592,695027,"2"
13875,12998,-3264,-12598,-2666,18251,-659,695037,"2"
13871,7872,254,-2598,1292,-5423,-50,735747,"1"
13872,8044,100,-2592,1539,-5771,10,735757,"1"
13873,8100,148,-2868,1815,-6260,82,735767,"1"
13874,8090,136,-3110,1999,-6685,141,735777,"1"
13875,7988,310,-3262,1860,-6957,279,735787,"1"
13876,12750,-2392,-13294,-290,16590,-653,695047,"2"
13877,9802,-2768,-16704,1489,14964,-1074,695057,"2"
13878,6546,-3044,-17856,3485,12375,-1161,695067,"2"
13879,808,-2698,-20872,3533,7502,247,695077,"2"
13880,-1984,-526,-20590,1664,980,1696,695087,"2"
13876,7858,208,-3338,1499,-7193,529,735797,"1"
13877,8134,362,-3434,1169,-7367,765,735807,"1"
13878,8488,436,-3352,888,-7548,968,735817,"1"
13879,8482,606,-3596,494,-7664,1240,735827,"1"
13880,8752,480,-3766,506,-7756,1361,735837,"1"
13881,698,-542,-17132,-926,-4954,1918,695097,"2"
13882,3650,-2936,-15782,-1111,-8935,1858,695107,"2"
13883,6142,-4224,-15212,656,-11623,1960,695117,"2"
13884,25896,-3454,29956,-1895,-4947,3063,695127,"2"
13885,21376,5138,29028,2357,-3676,1770,695137,"2"
13881,8808,342,-3896,1185,-7943,1176,735847,"1"
13882,9292,-236,-3750,2363,-8122,992,735857,"1"
13883,9420,-238,-3688,3132,-8454,962,735867,"1"
13884,9388,-132,-3344,3784,-8786,642,735877,"1"
13885,9660,-1566,-2648,4549,-9107,573,735887,"1"
13886,-1324,306,-6054,3001,-2376,1905,695147,"2"
13887,-7078,-2238,-10516,182,-7661,1910,695157,"2"
13888,14094,4844,-682,2074,-8132,-667,695167,"2"
13889,18434,4034,4162,1084,-7455,1760,695177,"2"
13890,13050,3990,-754,1327,-7198,2446,695187,"2"
13886,10126,-1974,-2052,5383,-9568,399,735897,"1"
13887,10658,-1926,-1546,6106,-10142,335,735907,"1"
13888,10940,-1260,-1132,6927,-10644,8,735917,"1"
13889,11714,-678,-420,7853,-10986,-439,735927,"1"
13890,12720,-246,184,8665,-11510,-781,735937,"1"
13891,8348,-544,-2992,1269,-8554,2460,695197,"2"
13892,9846,-6166,-4296,2078,-9245,3616,695207,"2"
13893,10154,-5248,-6070,5794,-9459,4266,695217,"2"
13894,14150,3722,-1072,8766,-8906,3734,695227,"2"
13895,9788,3572,-3214,6716,-8632,3472,695237,"2"
13891,13978,884,-146,9014,-12103,-778,735947,"1"
13892,13552,2080,-2938,9038,-13415,-442,735957,"1"
13893,15158,438,-2496,8349,-13633,654,735967,"1"
13894,15588,1018,-2342,6427,-12933,2126,735977,"1"
13895,14448,3702,-3784,6955,-12466,2034,735987,"1"
13896,7696,656,-2828,4197,-8747,2482,695247,"2"
13897,8334,-3776,-2710,3970,-7234,2242,695257,"2"
13898,8352,-1308,-2082,3101,-5816,2510,695267,"2"
13899,8788,634,-2152,1573,-4898,2251,695277,"2"
13900,9788,1332,-1810,1079,-4200,1532,695287,"2"
13896,13414,682,-5746,5320,-12236,2389,735997,"1"
13897,14034,30,-4752,1784,-10993,3099,736007,"1"
13898,12354,978,-7444,-566,-10093,3560,736017,"1"
13899,10520,2444,-5628,-701,-7899,2476,736027,"1"
13900,3990,1630,-3426,-1150,-5922,1830,736037,"1"
13901,10668,906,-1080,750,-3684,1320,695297,"2"
13902,10456,1134,-1190,589,-3204,1522,695307,"2"
13903,9456,1310,-1320,-5,-2794,1782,695317,"2"
13904,9072,526,-790,-439,-2466,1897,695327,"2"
13905,8746,-1326,-652,241,-2092,1815,695337,"2"
13901,4536,-478,-2018,-706,-4502,1280,736047,"1"
13902,7552,514,2448,388,-1818,585,736057,"1"
13903,9352,-324,4008,737,887,-165,736067,"1"
13904,7856,450,2868,108,3725,-519,736077,"1"
13905,5118,1032,708,-984,5697,-390,736087,"1"
13906,8640,-1624,-764,1320,-1812,1575,695347,"2"
13907,8648,-1222,-518,1966,-1573,1177,695357,"2"
13908,8548,-532,-590,1628,-1495,941,695367,"2"
13909,8484,360,-686,210,-1542,937,695377,"2"
13910,8508,576,-596,-1559,-1681,1070,695387,"2"
13906,3786,1500,-362,-1885,7241,-302,736097,"1"
13907,3092,1586,-646,-2800,8867,-331,736107,"1"
13908,3638,1040,-934,-3159,10513,-628,736117,"1"
13909,4376,-150,-956,-2954,12130,-989,736127,"1"
13910,5190,-946,-1248,-2426,13520,-1222,736137,"1"
13911,8386,80,-658,-2679,-1803,1249,695397,"2"
13912,8388,-1386,-728,-2222,-1733,1179,695407,"2"
13913,8480,-2070,-514,-489,-1572,896,695417,"2"
13914,8290,-1706,-304,1084,-1490,599,695427,"2"
13915,8024,-1258,-218,1751,-1601,425,695437,"2"
13911,6260,-1148,-1796,-1761,14855,-1767,736147,"1"
13912,6178,-1232,-2118,-1238,15792,-2048,736157,"1"
13913,6012,-996,-2748,-718,16653,-2349,736167,"1"
13914,6192,-688,-3068,-295,17558,-2665,736177,"1"
13915,6628,-476,-3734,-77,18471,-2937,736187,"1"
13916,7858,-454,-268,1570,-1796,399,695447,"2"
13917,7786,174,-368,564,-2080,488,695457,"2"
13918,7946,60,-392,-595,-2377,670,695467,"2"
13919,8046,-526,-496,-1079,-2636,754,695477,"2"
13920,8004,-906,-716,-839,-2810,706,695487,"2"
13916,7052,-366,-4134,200,19058,-3161,736197,"1"
13917,7622,-250,-4492,456,19494,-3405,736207,"1"
13918,8086,-32,-5052,539,19868,-3639,736217,"1"
13919,8694,304,-5560,132,20171,-3789,736227,"1"
13920,9188,502,-5784,-710,20435,-3771,736237,"1"
13921,8062,-848,-822,-407,-2931,655,695497,"2"
13922,8260,-632,-776,-182,-3039,613,695507,"2"
13923,8256,-456,-908,-210,-3188,647,695517,"2"
13924,8364,-406,-958,-400,-3304,680,695527,"2"
13925,8412,-400,-1338,-552,-3380,704,695537,"2"
13921,10004,714,-5922,-1719,20764,-3639,736247,"1"
13922,10858,342,-6246,-2515,21104,-3373,736257,"1"
13923,11432,-256,-6548,-2852,21385,-3109,736267,"1"
13924,12332,-1208,-6794,-2786,21726,-2789,736277,"1"
13925,13016,-2056,-7226,-2088,21907,-2434,736287,"1"
13926,8508,-246,-1506,-820,-3391,696,695547,"2"
13927,8428,-348,-1578,-1115,-3444,736,695557,"2"
13928,8350,-472,-1506,-1410,-3478,803,695567,"2"
13929,8342,-754,-1330,-1483,-3642,789,695577,"2"
13930,8356,-922,-1332,-1401,-3725,813,695587,"2"
13926,12898,-2022,-7840,-321,21753,-2554,736297,"1"
13927,12598,-2224,-8586,1965,21395,-3061,736307,"1"
13928,12338,-1894,-9130,4422,20961,-3785,736317,"1"
13929,11824,-966,-9710,6761,20143,-4741,736327,"1"
13930,11954,-588,-10476,7769,18981,-5514,736337,"1"
13931,8322,-524,-1310,-1465,-3974,835,695597,"2"
13932,8380,-330,-1268,-1632,-4238,830,695607,"2"
13933,8486,-392,-1150,-1885,-4625,923,695617,"2"
13934,8524,38,-1346,-2349,-5116,960,695627,"2"
13935,8594,116,-1430,-2904,-5597,993,695637,"2"
13931,12100,-672,-11082,7095,17986,-5734,736347,"1"
13932,11480,-486,-12256,5905,16999,-5658,736357,"1"
13933,9676,-1014,-13718,4606,15538,-5513,736367,"1"
13934,6778,-1960,-16438,3500,12885,-5245,736377,"1"
13935,2072,-2694,-20452,2113,8626,-4340,736387,"1"
13936,8702,-148,-1676,-3117,-6133,1005,695647,"2"
13937,9162,-86,-1570,-2915,-6258,891,695657,"2"
13938,9118,-218,-2056,-2413,-6636,753,695667,"2"
13939,9086,-254,-1978,-1882,-6933,654,695677,"2"
13940,9142,-208,-2332,-1247,-7226,449,695687,"2"
13936,-2200,-3980,-21828,453,3144,-2544,736397,"1"
13937,-2244,-2538,-19086,-985,-2328,-548,736407,"1"
13938,1722,408,-15022,-2251,-6074,485,736417,"1"
13939,6126,412,-12416,-2943,-7415,579,736427,"1"
13940,6246,-1878,-12360,-3698,-8177,770,736437,"1"
13941,9266,-546,-2242,-626,-7498,274,695697,"2"
13942,9550,-250,-2310,-258,-7766,34,695707,"2"
13943,9938,-930,-1996,-194,-8028,-52,695717,"2"
13944,9982,-478,-1834,-886,-8491,124,695727,"2"
13945,10396,306,-1428,-2239,-8862,290,695737,"2"
13941,17942,2620,10652,-606,-2514,-1081,736447,"1"
13942,18332,4314,17010,-529,-1290,-1471,736457,"1"
13943,7008,-142,3666,-5390,-1196,-409,736467,"1"
13944,2454,-4858,-7572,-5745,-2538,342,736477,"1"
13945,8950,-10030,-1808,-2103,-3454,1720,736487,"1"
13946,10802,340,-1436,-3519,-9370,356,695747,"2"
13947,11078,194,-1294,-4303,-9827,465,695757,"2"
13948,11220,698,-1026,-4852,-10231,670,695767,"2"
13949,11002,1474,-638,-5243,-10735,959,695777,"2"
13950,11336,2400,2,-5438,-11303,1078,695787,"2"
13946,13950,-6660,3026,742,-4306,1033,736497,"1"
13947,12482,462,-812,2590,-5769,-1082,736507,"1"
13948,9902,2676,-2746,2250,-6644,-1660,736517,"1"
13949,7298,10162,-6206,528,-7879,-2472,736527,"1"
13950,9906,5348,-4082,-5219,-6750,-1516,736537,"1"
13951,12110,2410,342,-5479,-11896,1229,695797,"2"
13952,12904,1856,1146,-5386,-12325,1663,695807,"2"
13953,13362,2138,1612,-5573,-12625,1989,695817,"2"
13954,14242,1334,2202,-5729,-12926,1971,695827,"2"
13955,14232,-704,610,-5019,-13469,1759,695837,"2"
13951,12682,-2190,-1950,-8536,-5698,10,736547,"1"
13952,11486,-4598,-1190,-8533,-4922,1190,736557,"1"
13953,8522,-3596,-2602,-6285,-4738,889,736567,"1"
13954,7332,-2500,-2976,-2212,-4823,-431,736577,"1"
13955,7124,-1032,-1316,2039,-5080,-1282,736587,"1"
13956,14472,-1156,-666,-4746,-13834,977,695847,"2"
13957,14588,-2066,-3394,-3617,-14460,56,695857,"2"
13958,15096,-2810,-5524,-2313,-14456,-577,695867,"2"
13959,15924,-2762,-4030,220,-13192,-1160,695877,"2"
13960,15532,-3792,-1398,2794,-11205,-1568,695887,"2"
13956,6818,1746,-146,3022,-5090,-1489,736597,"1"
13957,7718,3808,-4,1379,-4576,-1308,736607,"1"
13958,9060,3998,-76,-1247,-3824,-713,736617,"1"
13959,9388,3344,-124,-3110,-3214,-102,736627,"1"
13960,8420,1832,0,-3489,-2984,193,736637,"1"
13961,12156,-3658,-2766,5110,-9549,-1876,695897,"2"
13962,10180,-2146,-2660,6638,-8074,-2041,695907,"2"
13963,6382,-1020,-5864,7739,-6210,-2122,695917,"2"
13964,7862,670,-956,6625,-4850,-2300,695927,"2"
13965,8146,3818,2658,5153,-2480,-3042,695937,"2"
13961,7354,-492,330,-1983,-3309,287,736647,"1"
13962,6798,-1452,560,799,-4076,56,736657,"1"
13963,6868,-154,66,3534,-4905,-295,736667,"1"
13964,7582,1504,-486,4664,-5331,-348,736677,"1"
13965,8412,2390,-626,3722,-5218,-77,736687,"1"
13966,7690,3050,3864,2824,-422,-3326,695947,"2"
13967,6072,1140,2972,254,1403,-3177,695957,"2"
13968,4832,232,1360,-1378,3054,-3214,695967,"2"
13969,4434,-680,-88,-2614,4495,-3202,695977,"2"
13970,4834,-1266,-686,-3070,6179,-3317,695987,"2"
13966,8774,2312,-620,1616,-4718,393,736697,"1"
13967,8338,1400,-1126,143,-4347,644,736707,"1"
13968,8374,444,-1336,-69,-4114,603,736717,"1"
13969,8458,218,-1520,376,-3983,452,736727,"1"
13970,7986,560,-1548,1052,-4018,316,736737,"1"
13971,5224,-1704,-840,-2760,8005,-3511,695997,"2"
13972,5620,-1514,-364,-2187,9844,-3670,696007,"2"
13973,5912,-1400,96,-1718,11658,-3786,696017,"2"
13974,5930,-1458,-152,-1765,13319,-3693,696027,"2"
13975,6210,-1428,-348,-1975,14741,-3466,696037,"2"
13971,7686,1152,-1284,1668,-4170,266,736747,"1"
13972,7658,1768,-1052,1712,-4283,355,736757,"1"
13973,7724,2138,-1178,1188,-4309,629,736767,"1"
13974,7642,1678,-1260,685,-4301,829,736777,"1"
13975,7670,1168,-1460,525,-4361,881,736787,"1"
13976,6348,-1658,-818,-2225,16007,-3119,696047,"2"
13977,6816,-1938,-1276,-2126,17285,-2781,696057,"2"
13978,7528,-2262,-1666,-1632,18599,-2431,696067,"2"
13979,8374,-2216,-2272,-989,19858,-2132,696077,"2"
13980,9030,-1968,-2608,-484,20942,-1782,696087,"2"
13976,7640,772,-1828,627,-4481,808,736797,"1"
13977,7804,708,-2042,699,-4586,748,736807,"1"
13978,7736,874,-2046,434,-4700,786,736817,"1"
13979,7826,974,-2070,-14,-4774,869,736827,"1"
13980,7736,932,-2140,-475,-4898,965,736837,"1"
13981,9510,-2068,-2918,44,21806,-1403,696097,"2"
13982,10244,-2356,-3290,746,22640,-1001,696107,"2"
13983,11044,-2448,-4072,1870,23300,-731,696117,"2"
13984,12116,-2362,-4346,3294,23943,-625,696127,"2"
13985,13482,-1980,-4672,4597,24660,-772,696137,"2"
13981,7764,962,-2122,-645,-4976,903,736847,"1"
13982,7564,984,-2116,-710,-5039,870,736857,"1"
13983,7466,954,-2030,-610,-5112,781,736867,"1"
13984,7410,1134,-2058,-636,-5109,731,736877,"1"
13985,7560,1352,-2002,-817,-5094,753,736887,"1"
13986,14732,-930,-5306,5264,25516,-1130,696147,"2"
13987,15534,432,-6472,5323,26053,-1743,696157,"2"
13988,16382,792,-7338,4395,26198,-2300,696167,"2"
13989,16368,554,-8490,2554,25942,-2313,696177,"2"
13990,14296,1418,-9710,764,25392,-2621,696187,"2"
13986,7770,1088,-2208,-844,-5167,800,736897,"1"
13987,7978,820,-2124,-742,-5240,811,736907,"1"
13988,8148,1040,-2224,-633,-5458,749,736917,"1"
13989,8170,424,-2118,-280,-5697,687,736927,"1"
13990,8122,-184,-2560,-16,-6066,708,736937,"1"
13991,14282,1054,-9252,-1927,23972,-2505,696197,"2"
13992,13912,-460,-10850,-4588,22356,-1697,696207,"2"
13993,13646,-2292,-12270,-5157,20461,-737,696217,"2"
13994,13372,-2464,-13738,-3203,18673,-472,696227,"2"
13995,11840,-3008,-15896,-813,17050,-533,696237,"2"
13991,8248,-344,-2716,291,-6448,676,736947,"1"
13992,8488,-958,-3020,669,-6794,749,736957,"1"
13993,8156,-374,-3192,797,-7175,775,736967,"1"
13994,7898,-108,-3040,559,-7442,887,736977,"1"
13995,8048,-170,-3280,57,-7676,1268,736987,"1"
13996,8162,-4474,-18480,1734,14477,-558,696247,"2"
13997,1178,-3162,-23330,3800,9747,315,696257,"2"
13998,-3430,-92,-23386,2419,2735,1938,696267,"2"
13999,-2704,2176,-19410,-1459,-4850,2327,696277,"2"
14000,3568,-314,-15518,-3019,-9181,1675,696287,"2"
13996,8456,892,-3180,-772,-7701,1517,736997,"1"
13997,8530,1246,-3442,-1169,-7940,1905,737007,"1"
13998,8950,1088,-3804,-990,-7986,2010,737017,"1"
13999,9108,1190,-3546,-105,-8193,1779,737027,"1"
14000,9298,340,-3570,1379,-8456,1521,737037,"1"
14001,7222,-3814,-14828,-2485,-11615,1728,696297,"2"
14002,16670,-3148,7094,-3100,-9859,2510,696307,"2"
14003,25526,182,32138,-2023,-5173,2983,696317,"2"
14004,12652,4796,11254,1299,-3364,1706,696327,"2"
14005,-6456,-1676,-12710,1295,-4177,1996,696337,"2"
14001,9598,470,-3680,2496,-8775,1262,737047,"1"
14002,9750,562,-3180,3157,-9152,1106,737057,"1"
14003,9844,-694,-2618,3910,-9507,996,737067,"1"
14004,10540,-1968,-2090,4606,-9976,944,737077,"1"
14005,11180,-2150,-1538,5361,-10437,929,737087,"1"
14006,2128,518,-8130,977,-8788,-33,696347,"2"
14007,16246,2564,1040,3766,-7193,-697,696357,"2"
14008,18382,1410,284,2951,-6881,1840,696367,"2"
14009,14248,704,-4272,3013,-8078,2450,696377,"2"
14010,9844,-5912,-8732,2103,-9940,3756,696387,"2"
14006,12038,-1968,-772,6431,-11139,662,737097,"1"
14007,12414,-1654,-412,7670,-11690,224,737107,"1"
14008,13432,-1430,344,9095,-11955,-368,737117,"1"
14009,14974,-1142,1134,10250,-12423,-461,737127,"1"
14010,14904,232,-1258,10431,-13555,106,737137,"1"
14011,11436,-108,-4488,5433,-10031,3583,696397,"2"
14012,13454,4714,-128,7176,-9327,3301,696407,"2"
14013,9238,5478,-2570,4559,-9265,3166,696417,"2"
14014,7518,1492,-2136,1029,-9646,3272,696427,"2"
14015,8030,-2718,-1808,625,-8799,3457,696437,"2"
14011,14328,496,-3586,9867,-14332,1598,737147,"1"
14012,15800,1392,-2364,8895,-13760,2522,737157,"1"
14013,14352,4258,-3606,8506,-13377,2336,737167,"1"
14014,13474,2466,-5084,5247,-12637,2731,737177,"1"
14015,14354,972,-4584,735,-11220,3552,737187,"1"
14016,7850,-4252,-1478,1710,-7560,2903,696447,"2"
14017,7816,-4016,-1168,2905,-6301,2078,696457,"2"
14018,8922,-1174,-906,3639,-5244,1496,696467,"2"
14019,9470,990,-986,2579,-4479,1178,696477,"2"
14020,9940,920,-1516,1084,-4263,1162,696487,"2"
14016,13436,2100,-4914,-1577,-9824,3674,737197,"1"
14017,10766,1040,-5728,-2818,-8012,3101,737207,"1"
14018,4132,1152,-3214,-3338,-5917,2287,737217,"1"
14019,3968,-488,-2528,-2471,-4624,1722,737227,"1"
14020,7740,336,2752,-836,-1918,735,737237,"1"
14021,10340,418,-1736,670,-3930,1280,696497,"2"
14022,9594,80,-1240,595,-3509,1315,696507,"2"
14023,8790,738,-1228,-108,-3276,1539,696517,"2"
14024,8632,22,-1294,-524,-3021,1661,696527,"2"
14025,8770,-1208,-1102,-44,-2728,1561,696537,"2"
14021,9578,162,4358,-651,911,-220,737247,"1"
14022,8420,1542,3254,-1354,3842,-441,737257,"1"
14023,5466,1540,1292,-2920,5922,-2,737267,"1"
14024,4028,1476,-158,-3805,7445,303,737277,"1"
14025,4076,1202,-1016,-4025,9041,338,737287,"1"
14026,8708,-1316,-996,701,-2468,1277,696547,"2"
14027,8540,-652,-1062,651,-2316,1013,696557,"2"
14028,8624,-230,-1066,-350,-2239,891,696567,"2"
14029,8578,-222,-1116,-1663,-2256,934,696577,"2"
14030,8422,-326,-1246,-2586,-2191,1018,696587,"2"
14026,4564,552,-930,-3878,10826,301,737297,"1"
14027,5190,-174,-944,-3444,12574,266,737307,"1"
14028,5878,-886,-1544,-2710,13974,272,737317,"1"
14029,6212,-868,-1850,-1925,15454,93,737327,"1"
14030,6218,-572,-1852,-1338,16418,-52,737337,"1"
14031,8302,-984,-1338,-2565,-1998,925,696597,"2"
14032,8410,-1568,-1148,-1698,-1768,717,696607,"2"
14033,8416,-1442,-1030,-833,-1631,594,696617,"2"
14034,8416,-1682,-982,-76,-1584,374,696627,"2"
14035,8092,-1316,-1074,487,-1538,214,696637,"2"
14031,5938,-274,-2476,-359,17259,-261,737347,"1"
14032,6178,676,-3220,190,18190,-645,737357,"1"
14033,6702,1218,-3684,216,19093,-958,737367,"1"
14034,7420,1586,-4012,-64,19870,-1193,737377,"1"
14035,8064,1634,-4382,-366,20472,-1313,737387,"1"
14036,7852,-838,-974,419,-1567,202,696647,"2"
14037,7940,-528,-990,-74,-1695,261,696657,"2"
14038,8084,-410,-1106,-554,-1828,352,696667,"2"
14039,8156,-450,-1052,-887,-1994,427,696677,"2"
14040,8104,-600,-1128,-876,-2136,451,696687,"2"
14036,8684,1958,-4798,-853,20936,-1418,737397,"1"
14037,9124,2288,-5386,-1584,21353,-1497,737407,"1"
14038,9622,2482,-6000,-2596,21665,-1494,737417,"1"
14039,10540,2466,-6126,-3694,22011,-1452,737427,"1"
14040,11500,2098,-6454,-4444,22437,-1374,737437,"1"
14041,8074,-762,-1154,-824,-2221,448,696697,"2"
14042,8070,-746,-1166,-778,-2365,555,696707,"2"
14043,8036,-758,-1224,-841,-2506,525,696717,"2"
14044,8048,-698,-1432,-885,-2616,558,696727,"2"
14045,8164,-630,-1566,-931,-2724,615,696737,"2"
14041,12328,1282,-6836,-4578,22862,-1262,737447,"1"
14042,12920,-220,-7490,-4045,23101,-1105,737457,"1"
14043,12742,-1168,-8220,-2440,22944,-1259,737467,"1"
14044,12482,-882,-8974,276,22368,-2153,737477,"1"
14045,12240,-950,-9556,2951,21765,-3273,737487,"1"
14046,8358,-492,-1604,-1096,-2823,629,696747,"2"
14047,8374,-300,-1778,-1443,-2925,696,696757,"2"
14048,8486,-222,-1418,-2078,-3155,801,696767,"2"
14049,8324,-338,-1392,-2604,-3490,901,696777,"2"
14050,8170,-326,-1298,-2969,-3950,976,696787,"2"
14046,11538,-166,-10478,5303,20695,-4562,737497,"1"
14047,11236,410,-11244,6970,19526,-5645,737507,"1"
14048,11510,330,-11630,7474,18139,-6439,737517,"1"
14049,12088,-1504,-12816,6968,17081,-6720,737527,"1"
14050,11660,-2956,-15162,6706,16174,-6441,737537,"1"
14051,8134,-638,-706,-3140,-4574,1003,696797,"2"
14052,8090,-996,-798,-2956,-5299,963,696807,"2"
14053,8312,-1156,-1004,-2626,-5962,893,696817,"2"
14054,8838,-914,-1296,-2266,-6561,835,696827,"2"
14055,9184,-436,-1762,-1984,-7094,722,696837,"2"
14051,8102,-3682,-18038,5932,13888,-5693,737547,"1"
14052,3424,-1510,-20524,4049,10222,-4685,737557,"1"
14053,-452,-1398,-21604,835,5559,-3495,737567,"1"
14054,-1624,-3130,-20786,-1846,264,-1790,737577,"1"
14055,-490,-2934,-18194,-2611,-4304,-336,737587,"1"
14056,9406,-874,-1938,-1458,-7516,651,696847,"2"
14057,9354,-30,-2312,-842,-7850,409,696857,"2"
14058,9430,-538,-2380,-158,-8122,274,696867,"2"
14059,9730,-138,-2562,248,-8376,124,696877,"2"
14060,10140,-154,-2632,419,-8533,-44,696887,"2"
14056,2822,-2568,-16438,-3419,-7611,580,737597,"1"
14057,10592,-812,-8054,-3809,-7293,718,737607,"1"
14058,19216,2900,13418,-1300,-2683,-971,737617,"1"
14059,18976,5308,19264,-1072,-121,-1312,737627,"1"
14060,3644,-1532,-1032,-6466,-443,-237,737637,"1"
14061,10246,-502,-2296,-1,-8791,45,696897,"2"
14062,10724,-104,-1848,-1160,-9192,251,696907,"2"
14063,11136,28,-1572,-2174,-9548,328,696917,"2"
14064,11410,-24,-1524,-2930,-9868,527,696927,"2"
14065,11570,930,-1138,-3729,-10064,935,696937,"2"
14061,1242,-7160,-8328,-5522,-3204,198,737647,"1"
14062,10004,-11970,-1672,-476,-3814,1474,737657,"1"
14063,14676,-5310,2352,3813,-5120,275,737667,"1"
14064,13370,1738,-1796,4863,-6434,-1663,737677,"1"
14065,9724,4796,-2774,3392,-7191,-1934,737687,"1"
14066,11234,2242,-830,-4428,-10571,1198,696947,"2"
14067,11382,2324,-516,-4757,-11180,1285,696957,"2"
14068,12412,1836,584,-4711,-11664,1542,696967,"2"
14069,13016,1792,1218,-4932,-11962,1988,696977,"2"
14070,13964,2074,2404,-5647,-12356,2371,696987,"2"
14066,7496,11066,-4812,428,-8017,-2464,737697,"1"
14067,9918,5294,-3442,-5885,-6796,-1269,737707,"1"
14068,11838,-2314,-2822,-9174,-5710,164,737717,"1"
14069,10606,-4880,-2440,-8067,-5137,538,737727,"1"
14070,9340,-4014,-2372,-5739,-4744,644,737737,"1"
14071,14698,1346,3062,-6393,-12819,2667,696997,"2"
14072,14172,-240,230,-6783,-13277,2800,697007,"2"
14073,14062,-402,-866,-6816,-13463,1917,697017,"2"
14074,14202,-1312,-3174,-6124,-14352,944,697027,"2"
14075,14520,-3138,-6388,-5940,-14622,479,697037,"2"
14071,8214,-2598,-2642,-2019,-4544,-489,737747,"1"
14072,7282,-1018,-1838,1600,-4666,-1601,737757,"1"
14073,6862,1154,-442,2748,-4628,-1762,737767,"1"
14074,7990,2988,-268,1215,-4058,-1594,737777,"1"
14075,9206,3656,-58,-1331,-3397,-1045,737787,"1"
14076,15942,-3614,-4660,-3323,-13592,-66,697047,"2"
14077,15596,-4504,-1082,103,-11472,-493,697057,"2"
14078,10972,-3214,-4474,3480,-9879,-1053,697067,"2"
14079,9898,-2690,-2854,5116,-7916,-1111,697077,"2"
14080,6852,-1242,-4072,6046,-6165,-948,697087,"2"
14076,9142,3676,416,-3613,-2999,-296,737797,"1"
14077,7814,3062,642,-4821,-3050,261,737807,"1"
14078,6710,1342,840,-4460,-3604,482,737817,"1"
14079,6178,-876,626,-2274,-4621,430,737827,"1"
14080,6780,-1522,210,805,-5563,302,737837,"1"
14081,9020,924,1708,5183,-3676,-1047,697097,"2"
14082,8680,3768,5266,3982,-800,-1566,697107,"2"
14083,7374,3056,4748,1478,1423,-1626,697117,"2"
14084,5264,2356,2320,-1101,3132,-1744,697127,"2"
14085,4570,1136,-86,-2792,4481,-2055,697137,"2"
14081,7608,-194,-602,3359,-6236,22,737847,"1"
14082,8650,820,-978,4629,-6301,-139,737857,"1"
14083,9114,1472,-992,4079,-5838,-54,737867,"1"
14084,8774,2274,-722,1830,-5199,312,737877,"1"
14085,8372,2410,-798,-577,-4680,695,737887,"1"
14086,4968,30,-804,-3874,5835,-2262,697147,"2"
14087,5804,-726,-906,-3654,7725,-2505,697157,"2"
14088,5794,-848,-404,-2854,9671,-2822,697167,"2"
14089,5934,-702,182,-1919,11556,-3137,697177,"2"
14090,6076,-646,90,-1425,13257,-3305,697187,"2"
14086,8078,1572,-1012,-1963,-4405,895,737897,"1"
14087,8208,790,-1272,-2137,-4130,962,737907,"1"
14088,7776,564,-1516,-1301,-4271,867,737917,"1"
14089,7554,608,-1378,-64,-4477,657,737927,"1"
14090,7524,1156,-1238,793,-4601,514,737937,"1"
14091,6074,-786,-568,-1309,14758,-3205,697197,"2"
14092,6328,-1056,-832,-1323,16031,-2943,697207,"2"
14093,6822,-1540,-1350,-1202,17292,-2698,697217,"2"
14094,7398,-1932,-1702,-682,18627,-2540,697227,"2"
14095,8162,-2072,-2430,56,19937,-2454,697237,"2"
14091,7608,1438,-1380,1011,-4597,506,737947,"1"
14092,7872,1250,-1478,828,-4524,603,737957,"1"
14093,7948,898,-1640,491,-4387,759,737967,"1"
14094,7972,574,-1702,362,-4268,779,737977,"1"
14095,7950,396,-1814,537,-4262,703,737987,"1"
14096,8530,-1718,-2846,663,21042,-2369,697247,"2"
14097,8836,-1864,-3158,1073,21824,-2217,697257,"2"
14098,9654,-2408,-3322,1668,22499,-1978,697267,"2"
14099,10704,-2910,-3982,2785,23097,-1745,697277,"2"
14100,12004,-3240,-4574,4333,23685,-1611,697287,"2"
14096,7920,496,-1886,775,-4283,596,737997,"1"
14097,7750,582,-1852,1013,-4337,472,738007,"1"
14098,7700,752,-1960,1103,-4431,408,738017,"1"
14099,7638,972,-1794,1040,-4514,352,738027,"1"
14100,7468,1022,-1948,934,-4662,384,738037,"1"
14101,13578,-3150,-4748,5654,24453,-1554,697297,"2"
14102,14262,-1828,-6442,6473,25078,-1796,697307,"2"
14103,15022,-738,-7410,6371,25487,-2150,697317,"2"
14104,15844,-696,-7712,5072,25711,-2284,697327,"2"
14105,15704,-400,-7848,2791,25549,-2019,697337,"2"
14101,7744,942,-1994,894,-4785,425,738047,"1"
14102,7830,1078,-1928,878,-5009,432,738057,"1"
14103,7874,692,-2140,1161,-5317,403,738067,"1"
14104,7938,446,-2094,1298,-5636,466,738077,"1"
14105,7884,524,-2128,1414,-6036,435,738087,"1"
14106,14156,1080,-9186,197,25170,-1872,697347,"2"
14107,13544,2170,-8726,-3375,23847,-1773,697357,"2"
14108,13586,1826,-10220,-7926,22326,-1014,697367,"2"
14109,13520,-76,-11414,-10722,20360,70,697377,"2"
14110,13898,74,-12800,-10234,19006,556,697387,"2"
14106,7806,458,-2270,1438,-6389,508,738097,"1"
14107,7902,338,-2484,1244,-6695,662,738107,"1"
14108,8260,150,-2744,1023,-6910,883,738117,"1"
14109,8226,-48,-3040,916,-7208,906,738127,"1"
14110,8156,-466,-3242,640,-7351,1045,738137,"1"
14111,13566,-506,-13598,-9307,17793,187,697397,"2"
14112,10596,-2556,-15382,-7700,15679,199,697407,"2"
14113,3800,-4824,-20062,-4693,11592,1104,697417,"2"
14114,-1258,-3666,-22218,-1305,5713,2135,697427,"2"
14115,-3104,-394,-20306,-610,-1232,2335,697437,"2"
14111,8376,-314,-3194,389,-7536,1193,738147,"1"
14112,8398,-28,-3424,159,-7765,1297,738157,"1"
14113,8678,108,-3676,-324,-7762,1614,738167,"1"
14114,8928,628,-3512,-673,-7755,1910,738177,"1"
14115,8704,1278,-3828,-492,-7945,1904,738187,"1"
14116,256,1224,-16372,-1091,-7055,1802,697447,"2"
14117,5350,-1076,-14166,-361,-10415,1387,697457,"2"
14118,7888,-2976,-13570,1369,-11915,1408,697467,"2"
14119,20096,-2970,15740,-592,-7762,2569,697477,"2"
14120,19950,2312,23808,2040,-5571,2234,697487,"2"
14116,8724,1084,-3584,346,-8024,1753,738197,"1"
14117,9250,374,-3766,1377,-8231,1589,738207,"1"
14118,9582,192,-3434,2187,-8400,1529,738217,"1"
14119,9894,490,-3146,2816,-8872,1387,738227,"1"
14120,9866,-144,-2832,3457,-9319,1231,738237,"1"
14121,7794,5934,5550,5066,-3730,1064,697497,"2"
14122,-2792,1142,-8306,3176,-5586,1001,697507,"2"
14123,5524,3210,-7492,3938,-8266,-1495,697517,"2"
14124,15764,3202,1486,5617,-7074,-1062,697527,"2"
14125,16866,2010,-182,4193,-7013,1339,697537,"2"
14121,10402,-754,-1858,3810,-9747,1225,738247,"1"
14122,10972,-1542,-1446,4444,-10375,1301,738257,"1"
14123,11846,-1544,-1052,4957,-10964,1285,738267,"1"
14124,12522,-1086,-218,5544,-11386,970,738277,"1"
14125,13216,-932,112,6915,-11853,444,738287,"1"
14126,13374,-1678,-4946,2784,-8224,2449,697547,"2"
14127,9652,-8944,-10406,1824,-9986,3733,697557,"2"
14128,13696,-794,-2964,7478,-9461,3161,697567,"2"
14129,12282,2850,-2144,10147,-8458,2490,697577,"2"
14130,8542,4074,-2372,8183,-8375,2000,697587,"2"
14126,14530,-508,668,8229,-12379,90,738297,"1"
14127,15020,-214,-876,8570,-13129,454,738307,"1"
14128,14234,-166,-4020,8477,-14006,1899,738317,"1"
14129,15682,390,-2662,7719,-13942,3055,738327,"1"
14130,15220,3356,-2892,7580,-13216,2970,738337,"1"
14131,7960,900,-2404,6152,-8145,2110,697597,"2"
14132,7866,-222,-1276,4591,-7078,2659,697607,"2"
14133,7454,-412,-1282,2264,-6229,2589,697617,"2"
14134,8240,464,-1062,-14,-5874,2448,697627,"2"
14135,9538,1854,-1372,-2142,-5330,2285,697637,"2"
14131,14036,3020,-3942,6158,-12545,2839,738347,"1"
14132,12852,338,-5330,1122,-11659,4013,738357,"1"
14133,14518,2164,-3418,-1684,-9400,4270,738367,"1"
14134,10986,1242,-6924,-3190,-8749,4053,738377,"1"
14135,6918,1424,-3372,-3498,-6216,3186,738387,"1"
14136,10568,924,-970,-3867,-4973,2231,697647,"2"
14137,10066,-1282,-916,-3678,-4561,1979,697657,"2"
14138,9556,-2572,-1086,-1619,-4081,1673,697667,"2"
14139,8770,-2512,-716,836,-3325,1300,697677,"2"
14140,8260,-1194,-368,1849,-2944,1240,697687,"2"
14136,2890,-1012,-4704,-3809,-5432,2837,738397,"1"
14137,7042,442,1084,-2407,-2800,2081,738407,"1"
14138,9108,42,3818,-1729,-179,1158,738417,"1"
14139,8956,1308,3496,-1877,2709,581,738427,"1"
14140,6050,2130,1888,-2450,4734,493,738437,"1"
14141,8024,-150,-726,1630,-2768,1160,697697,"2"
14142,8562,-292,-814,1032,-2771,1057,697707,"2"
14143,8700,-58,-852,64,-2881,1039,697717,"2"
14144,8898,534,-846,-1572,-3128,1057,697727,"2"
14145,8708,-52,-1008,-3004,-3249,1102,697737,"2"
14141,3926,1888,118,-3272,6298,678,738447,"1"
14142,3330,1728,-872,-3891,7666,847,738457,"1"
14143,3530,1178,-1222,-4268,9340,911,738467,"1"
14144,4364,240,-1338,-3953,11191,903,738477,"1"
14145,5262,-626,-1432,-3470,12845,1041,738487,"1"
14146,8334,-748,-1122,-3660,-3213,1184,697747,"2"
14147,8216,-2012,-1116,-2858,-3015,1036,697757,"2"
14148,8424,-2922,-1140,-511,-2586,625,697767,"2"
14149,8422,-1704,-1166,1296,-2290,263,697777,"2"
14150,8378,-476,-1038,1401,-2303,213,697787,"2"
14146,5438,-434,-1934,-2613,14235,923,738497,"1"
14147,6576,-352,-2032,-1734,15336,505,738507,"1"
14148,5648,-24,-2438,-630,16171,-14,738517,"1"
14149,6110,-6,-3172,327,16877,-430,738527,"1"
14150,6062,362,-3850,703,17561,-640,738537,"1"
14151,8136,88,-1036,112,-2453,367,697797,"2"
14152,8244,20,-846,-1626,-2654,525,697807,"2"
14153,7916,-1240,-1350,-1871,-2609,457,697817,"2"
14154,8108,-1904,-1426,-1090,-2565,354,697827,"2"
14155,8036,-1336,-1380,-187,-2516,252,697837,"2"
14151,6262,2046,-3682,440,18502,-846,738547,"1"
14152,6832,2720,-3872,58,19149,-1087,738557,"1"
14153,7520,3146,-4106,-728,19772,-1206,738567,"1"
14154,8356,3372,-4704,-1835,20388,-1277,738577,"1"
14155,8916,3212,-5446,-3137,20924,-1201,738587,"1"
14156,8034,-1010,-1396,332,-2461,204,697847,"2"
14157,8194,-192,-1542,102,-2468,350,697857,"2"
14158,8420,-20,-1664,-687,-2623,514,697867,"2"
14159,8256,-588,-1762,-1219,-2664,597,697877,"2"
14160,8202,-1010,-1656,-1283,-2639,640,697887,"2"
14156,9310,2832,-6156,-4236,21301,-1076,738597,"1"
14157,10292,2308,-6408,-4848,21730,-994,738607,"1"
14158,11210,1754,-6564,-4946,22140,-918,738617,"1"
14159,12120,850,-6764,-4566,22514,-764,738627,"1"
14160,12554,-354,-7240,-3397,22768,-682,738637,"1"
14161,8224,-1104,-1802,-1139,-2632,644,697897,"2"
14162,8256,-916,-1960,-1023,-2596,642,697907,"2"
14163,8216,-530,-2010,-1235,-2643,722,697917,"2"
14164,8250,-508,-1932,-1579,-2733,794,697927,"2"
14165,8304,-732,-1828,-1794,-2867,851,697937,"2"
14161,12318,-782,-8090,-961,22594,-1203,738647,"1"
14162,12468,-808,-8408,1921,22291,-2284,738657,"1"
14163,12574,-1232,-9114,4555,21839,-3424,738667,"1"
14164,12656,-740,-9754,6677,21021,-4617,738677,"1"
14165,12334,-120,-10534,8042,20007,-5590,738687,"1"
14166,8348,-718,-1650,-1856,-3023,899,697947,"2"
14167,8390,-704,-1568,-1984,-3314,930,697957,"2"
14168,8298,-520,-1544,-2134,-3694,941,697967,"2"
14169,8350,-262,-1342,-2363,-4211,933,697977,"2"
14170,8472,-212,-1176,-2603,-4795,985,697987,"2"
14166,12458,132,-11644,8279,18928,-6271,738697,"1"
14167,12872,-484,-13350,7874,18193,-6610,738707,"1"
14168,11260,-1120,-15494,6832,16621,-6381,738717,"1"
14169,7084,-562,-18872,4969,13936,-5850,738727,"1"
14170,2474,1166,-21134,2059,10201,-5008,738737,"1"
14171,8600,-438,-1308,-2705,-5445,1009,697997,"2"
14172,8912,-410,-1432,-2574,-5984,985,698007,"2"
14173,9150,-424,-1808,-2220,-6593,826,698017,"2"
14174,9224,-600,-1986,-1928,-7069,808,698027,"2"
14175,9172,38,-2318,-1685,-7478,707,698037,"2"
14171,-1336,-678,-22540,-1844,5116,-3500,738747,"1"
14172,-2632,-3276,-21478,-4225,-343,-1548,738757,"1"
14173,-148,-2830,-18010,-4025,-5234,-68,738767,"1"
14174,8810,1504,-11410,-2217,-6138,-639,738777,"1"
14175,9880,-462,-4784,-1428,-7542,-421,738787,"1"
14176,9242,286,-2614,-1336,-7898,519,698047,"2"
14177,9420,-314,-2668,-929,-8279,327,698057,"2"
14178,9834,-588,-2226,-733,-8628,137,698067,"2"
14179,10504,-510,-1826,-1153,-8967,86,698077,"2"
14180,11016,-472,-1438,-2009,-9478,185,698087,"2"
14176,24442,-262,25242,-1441,-613,-11,738797,"1"
14177,9126,-1026,2442,-8467,-2691,1960,738807,"1"
14178,-442,-4606,-7634,-9338,-4502,955,738817,"1"
14179,8610,-12570,-3524,-5428,-5039,2193,738827,"1"
14180,14400,-8958,1194,-711,-5562,1536,738837,"1"
14181,11592,-176,-960,-3123,-9920,413,698097,"2"
14182,11574,622,-458,-4275,-10349,724,698107,"2"
14183,11570,1566,-274,-5461,-11079,1018,698117,"2"
14184,12048,2050,578,-6226,-11730,1255,698127,"2"
14185,12714,2246,990,-6772,-12427,1531,698137,"2"
14181,14146,-1498,-2130,1559,-6589,-1592,738847,"1"
14182,9476,1914,-5280,1640,-7747,-2566,738857,"1"
14183,8338,10664,-6754,173,-8991,-3341,738867,"1"
14184,12478,6384,-1414,-6163,-7360,-2025,738877,"1"
14185,12168,-964,-1732,-11380,-5917,574,738887,"1"
14186,13980,1666,1808,-6825,-13008,1952,698147,"2"
14187,15032,1604,2188,-6821,-13302,2199,698157,"2"
14188,15668,452,1730,-6432,-13735,2021,698167,"2"
14189,15008,66,-196,-5372,-14425,1361,698177,"2"
14190,15742,-626,-974,-5648,-15404,311,698187,"2"
14186,9154,-2072,-1408,-11413,-5235,1702,738897,"1"
14187,7234,-3194,-2982,-8385,-5115,1376,738907,"1"
14188,7000,-4490,-3258,-2124,-5579,-226,738917,"1"
14189,7460,-5298,-2108,4479,-6190,-1326,738927,"1"
14190,8158,-736,-1136,7021,-6438,-1858,738937,"1"
14191,17100,-3892,-1580,-5236,-15142,-26,698197,"2"
14192,17296,-4572,-2048,-3814,-14018,-66,698207,"2"
14193,14846,-2476,-3736,212,-12639,-966,698217,"2"
14194,14934,-4816,334,3366,-10556,-1317,698227,"2"
14195,11200,-3012,-3958,6109,-8974,-1525,698237,"2"
14191,8734,4712,28,4511,-5774,-1735,738947,"1"
14192,9428,6980,380,-776,-4503,-1039,738957,"1"
14193,9490,4864,-460,-5311,-3228,-54,738967,"1"
14194,8752,1082,-1334,-6845,-2547,350,738977,"1"
14195,7928,-1686,-1158,-5568,-2484,279,738987,"1"
14196,10712,-2230,-2376,6903,-6849,-1300,698247,"2"
14197,6692,-880,-4168,7289,-4970,-1153,698257,"2"
14198,9010,2226,1862,6238,-2661,-1499,698267,"2"
14199,8706,4204,5134,4818,-73,-2010,698277,"2"
14200,7538,3384,4844,2130,2449,-1863,698287,"2"
14196,7194,-2436,-530,-2371,-3214,37,738997,"1"
14197,6628,-1074,-30,1263,-4285,-420,739007,"1"
14198,6544,1194,298,3196,-5207,-658,739017,"1"
14199,7382,3084,382,2784,-5645,-371,739027,"1"
14200,7832,3420,76,1039,-5737,96,739037,"1"
14201,5274,1844,2750,-441,4169,-1682,698297,"2"
14202,4638,632,720,-2329,5559,-1540,698307,"2"
14203,4972,-340,-210,-3496,7170,-1524,698317,"2"
14204,5592,-784,-298,-3632,9051,-1666,698327,"2"
14205,5900,-476,-114,-3303,11026,-1860,698337,"2"
14201,8456,2216,-604,-788,-5632,444,739047,"1"
14202,8278,678,-1272,-1887,-5485,743,739057,"1"
14203,8266,-48,-1366,-1893,-5511,745,739067,"1"
14204,8184,-136,-1604,-1264,-5572,632,739077,"1"
14205,8212,310,-1794,-487,-5586,488,739087,"1"
14206,6192,384,-176,-3132,12886,-2075,698347,"2"
14207,6378,908,-346,-3526,14562,-2202,698357,"2"
14208,6456,924,-824,-4265,16029,-2089,698367,"2"
14209,6830,482,-964,-4938,17305,-1747,698377,"2"
14210,7120,-58,-1732,-5309,18560,-1354,698387,"2"
14206,8118,602,-1836,152,-5514,431,739097,"1"
14207,7900,942,-1932,432,-5442,400,739107,"1"
14208,7780,1076,-1932,243,-5408,478,739117,"1"
14209,7784,1040,-1844,-179,-5238,610,739127,"1"
14210,7890,878,-1786,-562,-5060,668,739137,"1"
14211,7808,-826,-2238,-4955,19941,-966,698397,"2"
14212,8668,-1046,-2736,-4172,21299,-687,698407,"2"
14213,8986,-974,-3004,-3423,22411,-473,698417,"2"
14214,9510,-1128,-3314,-2670,23263,-242,698427,"2"
14215,10598,-1572,-3794,-1603,23979,-38,698437,"2"
14211,7920,678,-2090,-558,-4938,621,739147,"1"
14212,7908,250,-2390,-122,-4914,470,739157,"1"
14213,8002,492,-2248,341,-4797,247,739167,"1"
14214,7752,444,-2556,636,-4772,109,739177,"1"
14215,7690,496,-2586,811,-4691,83,739187,"1"
14216,11842,-1940,-4670,46,24670,36,698447,"2"
14217,13256,-2092,-4970,1991,25571,-118,698457,"2"
14218,14504,-1236,-6100,3357,26500,-516,698467,"2"
14219,15448,394,-7926,4009,27115,-1218,698477,"2"
14220,16596,400,-8894,3576,27276,-1803,698487,"2"
14216,7796,466,-2758,722,-4519,66,739197,"1"
14217,7780,472,-2778,818,-4523,43,739207,"1"
14218,7896,420,-2534,1025,-4612,-1,739217,"1"
14219,7656,426,-2450,1310,-4913,41,739227,"1"
14220,7700,862,-2236,1412,-5215,-8,739237,"1"
14221,15992,328,-10238,2536,27036,-2112,698497,"2"
14222,14546,800,-11102,942,26405,-2464,698507,"2"
14223,14132,1024,-12114,-1635,24907,-2286,698517,"2"
14224,13980,588,-12954,-4810,22944,-1417,698527,"2"
14225,14174,-1108,-13288,-6351,20733,-343,698537,"2"
14221,8070,748,-1938,1292,-5499,120,739247,"1"
14222,7980,458,-2232,1329,-5996,292,739257,"1"
14223,8322,230,-2520,1479,-6536,369,739267,"1"
14224,8468,54,-2534,1620,-7065,467,739277,"1"
14225,8126,60,-2942,1699,-7563,497,739287,"1"
14226,14138,-2082,-13492,-4686,18859,-348,698547,"2"
14227,11416,-4480,-17302,-1736,17051,-742,698557,"2"
14228,7976,-6098,-19682,2154,14731,-780,698567,"2"
14229,402,-4532,-24794,4812,9504,373,698577,"2"
14230,-3660,-58,-24050,4108,2203,1906,698587,"2"
14226,7940,-490,-3120,1479,-7897,689,739297,"1"
14227,8212,-274,-3148,977,-8203,1029,739307,"1"
14228,8314,152,-3468,398,-8469,1410,739317,"1"
14229,8616,724,-3522,-284,-8399,1765,739327,"1"
14230,8962,1082,-3774,-455,-8557,1936,739337,"1"
14231,-1502,2060,-19536,335,-5177,1964,698597,"2"
14232,3682,-1490,-16198,-855,-9587,1550,698607,"2"
14233,14726,-5770,-326,-1352,-9901,2276,698617,"2"
14234,19148,-1206,15188,1144,-8072,2161,698627,"2"
14235,14926,3900,15336,5227,-5778,1190,698637,"2"
14231,9320,730,-3862,124,-8573,1889,739347,"1"
14232,9596,690,-4034,1047,-8669,1714,739357,"1"
14233,9756,906,-3812,1931,-8882,1419,739367,"1"
14234,10012,-378,-3106,2772,-9150,1330,739377,"1"
14235,10222,-1210,-2818,3610,-9574,1169,739387,"1"
14236,-1060,288,-6496,5668,-5041,1327,698647,"2"
14237,1140,3030,-8426,3979,-8921,555,698657,"2"
14238,14538,4444,-722,5333,-9167,-1334,698667,"2"
14239,17088,2182,888,4716,-8482,1245,698677,"2"
14240,13656,2188,-4152,5032,-8984,2277,698687,"2"
14236,10980,-1650,-1888,4233,-10005,1181,739397,"1"
14237,11700,-1422,-922,4975,-10289,1110,739407,"1"
14238,12430,-1216,-256,6017,-10901,828,739417,"1"
14239,12946,-990,450,7424,-11407,193,739427,"1"
14240,14292,-1686,1080,9401,-11735,-444,739437,"1"
14241,11596,-2362,-3998,3562,-10288,3379,698697,"2"
14242,9988,-5732,-7294,3860,-11221,4331,698707,"2"
14243,12624,756,-2244,8435,-10457,3622,698717,"2"
14244,10432,1324,-3302,10344,-9771,3034,698727,"2"
14245,8026,1476,-3438,8729,-9606,2938,698737,"2"
14241,15322,-1496,394,10701,-12630,-246,739447,"1"
14242,14368,-610,-3274,11516,-14053,769,739457,"1"
14243,15570,42,-2374,10921,-14382,2250,739467,"1"
14244,14616,3396,-3616,9390,-14184,2943,739477,"1"
14245,14420,5132,-3646,7458,-13693,2840,739487,"1"
14246,8656,-850,-2716,7663,-8934,2569,698747,"2"
14247,7894,-740,-2042,6854,-7815,2439,698757,"2"
14248,7168,-342,-1996,4831,-6978,2247,698767,"2"
14249,7862,1850,-1660,2098,-6424,2032,698777,"2"
14250,9660,3936,-1660,-1379,-6204,2084,698787,"2"
14246,16312,4074,-188,4575,-11768,2889,739497,"1"
14247,14506,2930,-2488,1114,-10372,3403,739507,"1"
14248,11216,1540,-7384,-1806,-9506,3820,739517,"1"
14249,10030,1580,-4062,-2923,-6954,3297,739527,"1"
14250,6780,636,-4076,-3932,-5570,2707,739537,"1"
14251,10684,3164,-2154,-4373,-5819,2234,698797,"2"
14252,10926,368,-2084,-4827,-5308,2170,698807,"2"
14253,10316,-1790,-2090,-2857,-4614,2123,698817,"2"
14254,9204,-2482,-1484,-115,-3887,1917,698827,"2"
14255,8586,-1670,-1174,1610,-3421,1836,698837,"2"
14251,5048,-672,-4426,-3490,-4066,1986,739547,"1"
14252,7164,-334,572,-2152,-1670,1379,739557,"1"
14253,9454,274,3174,-2069,1030,573,739567,"1"
14254,8546,2062,2762,-3227,4135,62,739577,"1"
14255,5874,2424,1412,-5069,6364,180,739587,"1"
14256,8316,-432,-1470,2110,-3030,1716,698847,"2"
14257,8562,-166,-1492,2090,-2812,1493,698857,"2"
14258,8688,-376,-1326,1624,-2759,1361,698867,"2"
14259,8730,-310,-1232,615,-2663,1133,698877,"2"
14260,8722,-336,-1116,-840,-2684,1020,698887,"2"
14256,3906,2006,-44,-6420,7980,455,739597,"1"
14257,3318,1392,-1174,-6701,9382,285,739607,"1"
14258,3760,22,-1938,-6185,11060,-99,739617,"1"
14259,4726,-1592,-1760,-4843,12770,-447,739627,"1"
14260,5264,-2638,-1900,-2873,14197,-755,739637,"1"
14261,8704,-322,-1254,-2328,-2597,1072,698897,"2"
14262,8442,-606,-1472,-2850,-2388,1084,698907,"2"
14263,8426,-1282,-1490,-2080,-2069,856,698917,"2"
14264,8336,-1962,-1480,-436,-1767,562,698927,"2"
14265,8276,-1720,-1316,1067,-1656,321,698937,"2"
14261,5528,-2904,-1812,-996,15502,-969,739647,"1"
14262,6350,-2522,-2286,705,16383,-1500,739657,"1"
14263,6216,-1986,-2456,2448,17444,-2091,739667,"1"
14264,5878,-1672,-2736,3708,18222,-2640,739677,"1"
14265,5992,-1212,-3054,4332,19110,-3048,739687,"1"
14266,8404,-1736,-1280,2012,-1545,242,698947,"2"
14267,8334,-1008,-1314,2327,-1576,154,698957,"2"
14268,8102,-284,-1264,1778,-1597,216,698967,"2"
14269,8130,72,-1138,761,-1715,348,698977,"2"
14270,8160,-154,-1278,-92,-1752,470,698987,"2"
14266,6682,-736,-3294,4529,20002,-3525,739697,"1"
14267,7434,-814,-3638,4638,20719,-3903,739707,"1"
14268,8398,-584,-3934,4606,21325,-4316,739717,"1"
14269,9070,-116,-4370,4169,21868,-4669,739727,"1"
14270,9538,56,-4916,3088,22357,-4853,739737,"1"
14271,8102,-168,-1482,-589,-1912,568,698997,"2"
14272,8240,-676,-1536,-635,-2024,594,699007,"2"
14273,8172,-962,-1488,-422,-2083,587,699017,"2"
14274,7900,-708,-1624,-327,-2228,595,699027,"2"
14275,8152,-716,-1336,-438,-2343,615,699037,"2"
14271,10344,6,-5406,1294,22848,-4782,739747,"1"
14272,11366,-82,-5646,-360,23526,-4631,739757,"1"
14273,12396,-1078,-6318,-1217,24107,-4429,739767,"1"
14274,13458,-2050,-7262,-1456,24466,-4263,739777,"1"
14275,14522,-3046,-8642,-1303,24439,-3955,739787,"1"
14276,8132,-702,-1504,-669,-2461,707,699047,"2"
14277,8404,-560,-1608,-977,-2582,759,699057,"2"
14278,8588,-380,-1826,-1363,-2698,811,699067,"2"
14279,8414,-162,-1614,-1780,-2969,850,699077,"2"
14280,8198,-472,-1170,-2033,-3408,891,699087,"2"
14276,14524,-2816,-10024,-803,24038,-3671,739797,"1"
14277,13832,-2112,-11378,-149,23356,-3519,739807,"1"
14278,13476,-1036,-12936,571,22202,-3633,739817,"1"
14279,12664,128,-14034,971,20641,-3985,739827,"1"
14280,11528,160,-15096,32,18583,-4100,739837,"1"
14281,7970,-822,-798,-2025,-4038,943,699097,"2"
14282,7964,-688,-634,-1827,-4726,964,699107,"2"
14283,8148,-558,-630,-1759,-5484,1011,699117,"2"
14284,8834,-190,-768,-1900,-6266,1009,699127,"2"
14285,9214,-556,-1318,-1979,-6842,1081,699137,"2"
14281,10948,-600,-15642,-2482,16596,-3295,739847,"1"
14282,9180,48,-18704,-4935,15116,-2196,739857,"1"
14283,4742,56,-21168,-7730,12796,-1565,739867,"1"
14284,-1772,-3808,-25038,-9018,7261,-726,739877,"1"
14285,-4990,-5904,-25116,-6862,695,80,739887,"1"
14286,9180,-254,-2098,-1987,-7434,1083,699147,"2"
14287,8954,-402,-2530,-1551,-7840,986,699157,"2"
14288,9050,-278,-2736,-901,-8200,780,699167,"2"
14289,9300,-670,-3146,-149,-8521,551,699177,"2"
14290,9550,-556,-2850,518,-8671,313,699187,"2"
14286,-2064,-5134,-21162,-3386,-5266,864,739897,"1"
14287,2104,-782,-18166,-1347,-8778,1059,739907,"1"
14288,15152,3852,-790,1484,-6256,-82,739917,"1"
14289,23870,6178,24548,4781,-3317,-1378,739927,"1"
14290,13470,6444,13494,-1586,-4320,362,739937,"1"
14291,9784,-926,-2640,712,-8811,156,699197,"2"
14292,10004,-1042,-2430,128,-8996,250,699207,"2"
14293,10588,-774,-2258,-765,-9366,294,699217,"2"
14294,10916,-1006,-1996,-1616,-9809,515,699227,"2"
14295,11146,-150,-1524,-2515,-10022,814,699237,"2"
14291,-1458,1994,-6880,-6301,-5270,-281,739947,"1"
14292,3272,-6846,-7750,-2248,-7340,778,739957,"1"
14293,10962,-6230,-1114,2038,-7978,983,739967,"1"
14294,15702,-24,-384,3442,-8922,-421,739977,"1"
14295,13066,-558,-3584,567,-9181,-294,739987,"1"
14296,11318,870,-1204,-3471,-10400,1169,699247,"2"
14297,11924,1688,-442,-4579,-10943,1452,699257,"2"
14298,12512,1856,36,-5636,-11552,1813,699267,"2"
14299,13458,1832,474,-6395,-11947,2212,699277,"2"
14300,14964,3956,1578,-7784,-11961,2556,699287,"2"
14296,10620,1644,-3650,-598,-9606,-293,739997,"1"
14297,8600,3258,-5806,-2625,-10377,-524,740007,"1"
14298,10328,-1390,-2102,-5121,-9389,54,740017,"1"
14299,9076,-1150,-2946,-5635,-9270,-197,740027,"1"
14300,7340,-1270,-3276,-4945,-8860,-455,740037,"1"
14301,16226,4982,3920,-10196,-12294,2487,699297,"2"
14302,15166,1662,2884,-11634,-13050,2491,699307,"2"
14303,12376,-64,-2214,-11863,-13537,1834,699317,"2"
14304,13618,388,-1916,-11252,-14397,654,699327,"2"
14305,16294,-3238,-890,-11817,-13950,418,699337,"2"
14301,7904,178,-3976,-3754,-8252,-671,740047,"1"
14302,8900,904,-3702,-2844,-7008,-744,740057,"1"
14303,8782,590,-3602,-2235,-6046,-705,740067,"1"
14304,8954,-676,-2672,-1511,-5157,-752,740077,"1"
14305,9176,-1740,-2260,-663,-4366,-847,740087,"1"
14306,15122,-5466,-6220,-11075,-13728,580,699347,"2"
14307,14756,-3836,-4636,-6249,-12655,-241,699357,"2"
14308,13736,-5036,-3664,-1536,-11214,-538,699367,"2"
14309,11382,-3488,-3868,1283,-9188,-690,699377,"2"
14310,8512,-1026,-3162,3110,-6538,-521,699387,"2"
14306,9664,-1478,-2174,192,-3929,-1043,740097,"1"
14307,9620,-782,-1964,496,-3614,-1168,740107,"1"
14308,8920,68,-1610,283,-3286,-1199,740117,"1"
14309,8266,528,-1488,22,-2951,-1155,740127,"1"
14310,7906,844,-1236,-190,-2650,-1081,740137,"1"
14311,8362,2,1170,3468,-4178,-412,699397,"2"
14312,8918,1438,4232,3719,-1472,-776,699407,"2"
14313,8778,1614,5826,2997,1504,-668,699417,"2"
14314,6322,982,3564,2214,3954,-360,699427,"2"
14315,4398,748,716,2516,5737,-695,699437,"2"
14311,7890,680,-1336,-452,-2413,-984,740147,"1"
14312,8108,628,-1566,-622,-2210,-819,740157,"1"
14313,8230,568,-1756,-461,-2072,-647,740167,"1"
14314,8016,360,-1754,139,-2053,-640,740177,"1"
14315,7694,522,-1776,1007,-2099,-762,740187,"1"
14316,4288,-448,-116,2545,7271,-905,699447,"2"
14317,4596,0,-728,2962,9023,-1145,699457,"2"
14318,5466,194,-498,3335,10973,-1406,699467,"2"
14319,5340,532,-882,3221,12892,-1609,699477,"2"
14320,5382,530,-1148,2721,14396,-1657,699487,"2"
14316,7392,544,-1632,1654,-2256,-933,740197,"1"
14317,7412,942,-1452,1629,-2382,-876,740207,"1"
14318,7730,1628,-1196,755,-2390,-581,740217,"1"
14319,7714,1628,-1140,-440,-2422,-153,740227,"1"
14320,7460,1190,-1350,-1261,-2527,157,740237,"1"
14321,5918,926,-1166,1985,15822,-1601,699497,"2"
14322,6298,1424,-1316,856,16940,-1455,699507,"2"
14323,6822,1424,-1492,-283,17977,-1305,699517,"2"
14324,7454,776,-1988,-985,19018,-1193,699527,"2"
14325,7848,456,-2790,-1214,20002,-1088,699537,"2"
14321,7380,864,-1610,-1446,-2752,232,740247,"1"
14322,7416,454,-1800,-1248,-3015,187,740257,"1"
14323,7462,374,-1766,-884,-3279,90,740267,"1"
14324,7532,642,-1546,-622,-3538,5,740277,"1"
14325,7624,1220,-1416,-622,-3733,52,740287,"1"
14326,8434,596,-3344,-1450,20742,-975,699547,"2"
14327,9106,930,-3726,-1819,21375,-888,699557,"2"
14328,9768,866,-4076,-1988,21892,-775,699567,"2"
14329,10406,432,-4518,-1789,22353,-671,699577,"2"
14330,11250,-50,-5180,-934,22759,-669,699587,"2"
14326,7582,1468,-1388,-916,-3867,180,740297,"1"
14327,7758,1502,-1466,-1217,-3860,243,740307,"1"
14328,7812,1046,-1850,-1476,-3799,311,740317,"1"
14329,8034,280,-2300,-1314,-3760,316,740327,"1"
14330,8180,-516,-2828,-821,-3616,249,740337,"1"
14331,12194,-486,-5628,555,23240,-843,699597,"2"
14332,13496,-566,-5766,2143,23966,-1167,699607,"2"
14333,14580,-180,-6268,3250,24823,-1593,699617,"2"
14334,15070,524,-7686,3703,25255,-2068,699627,"2"
14335,14368,584,-9376,3462,25120,-2494,699637,"2"
14331,8462,-428,-2576,-255,-3437,52,740347,"1"
14332,8002,-138,-2424,285,-3659,-74,740357,"1"
14333,7742,532,-1900,479,-3922,-53,740367,"1"
14334,7524,932,-1604,291,-4513,175,740377,"1"
14335,7502,1084,-1454,208,-5154,418,740387,"1"
14336,13630,466,-9866,2534,24482,-2826,699647,"2"
14337,14096,142,-10028,1037,23589,-2932,699657,"2"
14338,14470,-746,-10784,-791,22331,-2644,699667,"2"
14339,14050,-1880,-11626,-2165,20522,-2015,699677,"2"
14340,12910,-2732,-12816,-1811,18376,-1456,699687,"2"
14336,7694,936,-1502,221,-5843,554,740397,"1"
14337,8114,460,-1872,610,-6493,620,740407,"1"
14338,8454,-70,-2570,1291,-7087,619,740417,"1"
14339,8888,-812,-2544,1962,-7494,609,740427,"1"
14340,9028,-496,-2694,2197,-7875,623,740437,"1"
14341,11896,-3404,-14228,101,16466,-1221,699697,"2"
14342,9322,-4762,-17146,949,14332,-1215,699707,"2"
14343,4314,-3054,-19958,1797,11059,-270,699717,"2"
14344,-440,-1750,-21260,86,5505,1659,699727,"2"
14345,-724,-198,-19028,-2683,-926,2634,699737,"2"
14341,8784,-774,-3306,1930,-8145,991,740447,"1"
14342,8968,94,-3036,1118,-8054,1297,740457,"1"
14343,8896,-54,-3410,520,-8306,1773,740467,"1"
14344,9030,364,-3520,12,-8165,2107,740477,"1"
14345,8876,852,-3590,67,-8293,2166,740487,"1"
14346,2262,-1960,-16046,-3882,-5744,2211,699747,"2"
14347,4554,-4008,-14348,-3034,-9210,2035,699757,"2"
14348,12338,-4674,-864,-1920,-9408,2524,699767,"2"
14349,20708,3098,22048,655,-6120,1336,699777,"2"
14350,10878,5520,6434,5238,-5222,227,699787,"2"
14346,9244,602,-3478,775,-8431,2102,740497,"1"
14347,9688,908,-3478,1502,-8685,1919,740507,"1"
14348,9644,694,-2754,2108,-8946,1794,740517,"1"
14349,9670,-58,-2854,2769,-9478,1506,740527,"1"
14350,10088,-954,-2142,3416,-9954,1451,740537,"1"
14351,-1430,-726,-7910,3503,-6560,1042,699797,"2"
14352,5920,3628,-5408,4195,-8936,-259,699807,"2"
14353,15226,1672,1694,5228,-7841,449,699817,"2"
14354,14620,2942,1108,5514,-7193,2005,699827,"2"
14355,11286,442,-3314,5526,-7727,2476,699837,"2"
14351,10788,-1382,-1674,4195,-10540,1370,740547,"1"
14352,11212,-876,-1148,4810,-11113,1182,740557,"1"
14353,12338,-1110,-136,5776,-11491,877,740567,"1"
14354,12780,-862,-284,7113,-12090,318,740577,"1"
14355,15008,-1330,1040,8988,-11982,3,740587,"1"
14356,9788,-5754,-6796,4009,-9074,3743,699847,"2"
14357,9310,-8394,-7668,5480,-10042,4624,699857,"2"
14358,14248,944,-2704,10667,-9295,3672,699867,"2"
14359,11550,3624,-3040,11049,-8846,3052,699877,"2"
14360,8532,3866,-2400,7113,-9111,2721,699887,"2"
14356,16244,-220,2,10156,-13044,345,740597,"1"
14357,14026,1308,-3570,10874,-14535,897,740607,"1"
14358,14830,-60,-2432,9732,-14274,2385,740617,"1"
14359,14598,2092,-2916,7752,-13596,3454,740627,"1"
14360,15058,5314,-2828,7504,-13034,2844,740637,"1"
14361,6834,1180,-1906,3776,-8793,2520,699897,"2"
14362,6708,392,-1374,805,-8071,2916,699907,"2"
14363,7240,1672,-1536,-2384,-7469,3094,699917,"2"
14364,9080,2340,-2020,-4987,-7235,2863,699927,"2"
14365,10852,704,-1796,-5740,-6780,2630,699937,"2"
14361,14368,3640,-3114,4865,-12280,2809,740647,"1"
14362,14512,1860,-3406,790,-10726,3372,740657,"1"
14363,11470,1492,-6448,-1982,-9484,3425,740667,"1"
14364,9636,1190,-1200,-1636,-6664,2438,740677,"1"
14365,3192,-1040,-4442,-2055,-5749,1902,740687,"1"
14366,10956,-2372,-1536,-4127,-6166,2332,699947,"2"
14367,10182,-3928,-1904,-388,-5399,1938,699957,"2"
14368,9082,-3456,-1626,3709,-4418,1367,699967,"2"
14369,8460,-1626,-1262,5663,-3764,1227,699977,"2"
14370,8096,604,-1520,5202,-3400,1233,699987,"2"
14366,6462,-52,-338,-744,-3523,1112,740697,"1"
14367,8402,412,3082,-17,-1229,168,740707,"1"
14368,9638,1124,4728,-43,1858,-817,740717,"1"
14369,7048,2272,2532,-894,4632,-1392,740727,"1"
14370,4872,1980,686,-2787,6562,-1221,740737,"1"
14371,8466,1572,-1752,3363,-3238,1277,699997,"2"
14372,8810,1430,-1638,914,-3282,1404,700007,"2"
14373,8922,678,-1758,-1350,-3311,1495,700017,"2"
14374,8866,-282,-1906,-2633,-3275,1475,700027,"2"
14375,8748,-1074,-1700,-2913,-3121,1304,700037,"2"
14371,3852,1880,-218,-4433,8245,-990,740747,"1"
14372,3936,1674,-578,-5211,9861,-1003,740757,"1"
14373,4354,684,-1014,-5524,11692,-1284,740767,"1"
14374,5134,-344,-1458,-5272,13375,-1575,740777,"1"
14375,5680,-980,-1550,-4520,14936,-1741,740787,"1"
14376,8664,-1470,-1556,-2239,-2821,1095,700047,"2"
14377,8562,-1422,-1642,-1128,-2554,955,700057,"2"
14378,8502,-1672,-1688,419,-2147,657,700067,"2"
14379,8432,-1242,-1628,1713,-1867,301,700077,"2"
14380,8450,-636,-1446,1722,-1790,331,700087,"2"
14376,5800,-1126,-2298,-3968,16126,-1848,740797,"1"
14377,6888,-1868,-2608,-3306,17642,-2151,740807,"1"
14378,6948,-2010,-3460,-2178,18536,-2290,740817,"1"
14379,6848,-1982,-3454,-624,19278,-2617,740827,"1"
14380,6640,-1206,-3640,406,19887,-2906,740837,"1"
14381,8450,-522,-1370,1167,-1814,421,700097,"2"
14382,8376,-834,-1406,694,-1832,469,700107,"2"
14383,8252,-792,-1370,339,-1877,504,700117,"2"
14384,8128,-694,-1382,179,-1917,530,700127,"2"
14385,7988,-870,-1570,248,-1933,603,700137,"2"
14381,7180,-418,-3910,984,20541,-3058,740847,"1"
14382,8178,206,-4432,1091,21097,-3263,740857,"1"
14383,8992,582,-4952,696,21661,-3367,740867,"1"
14384,9880,756,-5444,-178,22217,-3250,740877,"1"
14385,10558,588,-5964,-1268,22689,-2961,740887,"1"
14386,8206,-562,-1562,326,-1957,631,700147,"2"
14387,8292,-144,-1826,72,-2006,655,700157,"2"
14388,8274,-14,-1804,-499,-2116,694,700167,"2"
14389,8240,-332,-1784,-1118,-2244,819,700177,"2"
14390,8116,-732,-1896,-1535,-2302,908,700187,"2"
14386,11590,224,-6370,-1974,23272,-2670,740897,"1"
14387,12656,-158,-6586,-2095,23856,-2449,740907,"1"
14388,13664,-1082,-7192,-1791,24398,-2236,740917,"1"
14389,13684,-1852,-8664,-985,24367,-2206,740927,"1"
14390,13100,-1730,-9746,653,23814,-2667,740937,"1"
14391,7970,-800,-2020,-1720,-2340,910,700197,"2"
14392,8120,-956,-1970,-1793,-2373,937,700207,"2"
14393,8330,-874,-1974,-1851,-2450,954,700217,"2"
14394,8312,-544,-1892,-2036,-2595,955,700227,"2"
14395,8222,-308,-1632,-2384,-2886,1019,700237,"2"
14391,12804,-1206,-10592,2085,22850,-3267,740947,"1"
14392,12636,168,-11098,2884,21778,-3967,740957,"1"
14393,12462,1536,-12150,2917,20365,-4674,740967,"1"
14394,12700,1634,-13132,1611,18882,-5019,740977,"1"
14395,12380,726,-14924,-760,17703,-4645,740987,"1"
14396,8098,-364,-1340,-2712,-3330,1124,700247,"2"
14397,7918,-304,-1076,-2895,-3965,1159,700257,"2"
14398,8116,-256,-820,-2786,-4697,1131,700267,"2"
14399,8292,-880,-904,-2374,-5483,1134,700277,"2"
14400,8572,-826,-1166,-1856,-6208,1127,700287,"2"
14396,9574,-856,-17708,-3084,16145,-3979,740997,"1"
14397,4458,-2870,-20272,-4251,12978,-3207,741007,"1"
14398,-1410,-3770,-23692,-4140,7755,-2350,741017,"1"
14399,-3720,-4936,-23122,-3106,1764,-1282,741027,"1"
14400,-1556,-3248,-19750,-1494,-3758,-155,741037,"1"
14401,8804,-744,-1780,-1328,-6740,1020,700297,"2"
14402,9050,-636,-2018,-982,-7282,965,700307,"2"
14403,9026,-310,-2622,-755,-7745,830,700317,"2"
14404,9168,-442,-2690,-450,-8146,642,700327,"2"
14405,9554,-896,-2802,-170,-8453,505,700337,"2"
14401,1826,-418,-17144,-821,-7697,424,741047,"1"
14402,9344,2206,-10658,-708,-8844,412,741057,"1"
14403,14970,5666,5496,1091,-6750,-743,741067,"1"
14404,20914,5504,21610,1000,-3042,-981,741077,"1"
14405,6840,632,2384,-7273,-3915,1334,741087,"1"
14406,9960,-848,-2604,-245,-8666,486,700347,"2"
14407,10226,-468,-2386,-699,-8918,490,700357,"2"
14408,10434,-434,-2452,-1309,-9216,528,700367,"2"
14409,10940,-300,-1912,-1968,-9654,661,700377,"2"
14410,11272,528,-1686,-2583,-9955,823,700387,"2"
14406,860,-2966,-7808,-7906,-5937,1020,741097,"1"
14407,7744,-10610,-4612,-3927,-6844,2343,741107,"1"
14408,13170,-8118,-820,370,-7583,1825,741117,"1"
14409,14698,-444,-3644,2697,-8933,-851,741127,"1"
14410,10482,1176,-7136,2086,-9920,-1454,741137,"1"
14411,11454,1672,-1356,-3526,-10472,1100,700397,"2"
14412,12050,2342,-804,-4633,-11033,1387,700407,"2"
14413,13006,2508,96,-5668,-11623,1725,700417,"2"
14414,14156,2900,838,-6741,-11870,2173,700427,"2"
14415,15816,5000,2386,-8790,-11827,2752,700437,"2"
14411,8784,4592,-6770,837,-10800,-1719,741147,"1"
14412,11656,-1204,-1630,-2955,-10160,-578,741157,"1"
14413,11260,-794,-1706,-6142,-9419,366,741167,"1"
14414,8156,788,-2098,-6827,-8931,448,741177,"1"
14415,5756,1764,-3076,-7173,-8573,317,741187,"1"
14416,17564,5410,4006,-11752,-11883,2753,700447,"2"
14417,15768,2326,1830,-13471,-12768,2601,700457,"2"
14418,12530,-268,-2292,-13877,-14067,1538,700467,"2"
14419,13666,-2870,-2106,-12645,-14942,536,700477,"2"
14420,15732,-7082,-2470,-11813,-14242,611,700487,"2"
14416,7258,1598,-3128,-6499,-7650,64,741197,"1"
14417,7566,358,-3080,-5021,-6720,-29,741207,"1"
14418,8902,-568,-2994,-2769,-6176,-379,741217,"1"
14419,9202,-1528,-2856,-946,-5739,-696,741227,"1"
14420,9566,-1864,-2494,317,-5166,-859,741237,"1"
14421,15232,-5936,-5836,-7078,-13187,148,700497,"2"
14422,15050,-4304,-2544,-1044,-11592,-786,700507,"2"
14423,12812,-4302,-3284,2925,-9760,-903,700517,"2"
14424,11220,-2244,-1996,3870,-8092,-728,700527,"2"
14425,7336,-348,-6028,5024,-5684,-628,700537,"2"
14421,9550,-672,-1990,470,-4683,-859,741247,"1"
14422,9220,474,-1836,-173,-4334,-776,741257,"1"
14423,8462,810,-1780,-778,-4045,-646,741267,"1"
14424,7930,930,-1620,-1344,-3778,-524,741277,"1"
14425,7848,920,-1332,-1899,-3403,-362,741287,"1"
14426,7578,-294,-1356,4300,-4301,-419,700547,"2"
14427,8346,1968,2712,3453,-1603,-692,700557,"2"
14428,8852,2210,4972,2825,1202,-768,700567,"2"
14429,6856,418,3824,2015,3854,-490,700577,"2"
14430,4712,128,1444,2039,5618,-634,700587,"2"
14426,7894,586,-1606,-2073,-3082,-234,741297,"1"
14427,8194,158,-1956,-1698,-2825,-230,741307,"1"
14428,8322,44,-2292,-716,-2713,-302,741317,"1"
14429,8164,356,-2346,528,-2530,-515,741327,"1"
14430,7722,628,-2188,1426,-2384,-724,741337,"1"
14431,3982,-562,-316,1933,7081,-852,700597,"2"
14432,4362,-554,-732,1694,8612,-958,700607,"2"
14433,5050,-460,-672,1970,10381,-1155,700617,"2"
14434,5582,2,-388,2148,12412,-1432,700627,"2"
14435,5642,846,-208,1915,14207,-1666,700637,"2"
14431,7688,834,-1998,1563,-2167,-750,741347,"1"
14432,7818,1018,-1732,1013,-1879,-567,741357,"1"
14433,7906,1134,-1766,243,-1702,-306,741367,"1"
14434,7962,1144,-1902,-330,-1652,-52,741377,"1"
14435,7716,922,-1968,-487,-1663,66,741387,"1"
14436,5704,1098,-492,946,15779,-1750,700647,"2"
14437,5930,1382,-704,-526,17106,-1551,700657,"2"
14438,6256,1412,-916,-1916,18215,-1294,700667,"2"
14439,6916,852,-1476,-2974,19311,-1061,700677,"2"
14440,7726,34,-2230,-3343,20462,-825,700687,"2"
14436,7558,676,-1928,-224,-1685,43,741397,"1"
14437,7366,618,-1926,305,-1740,-94,741407,"1"
14438,7392,614,-1948,827,-1878,-245,741417,"1"
14439,7398,868,-1842,1070,-2074,-280,741427,"1"
14440,7452,992,-1754,951,-2238,-254,741437,"1"
14441,8310,-342,-2838,-3246,21574,-598,700697,"2"
14442,8868,-232,-3122,-2942,22456,-356,700707,"2"
14443,9724,-298,-3324,-2544,23240,-132,700717,"2"
14444,10914,-534,-3818,-1817,23958,2,700727,"2"
14445,11994,-664,-4740,-721,24616,23,700737,"2"
14441,7532,1046,-1742,741,-2470,-155,741447,"1"
14442,7372,900,-1652,565,-2752,-85,741457,"1"
14443,7384,932,-1674,490,-3097,-59,741467,"1"
14444,7526,1048,-1780,429,-3348,-39,741477,"1"
14445,7502,854,-1928,462,-3693,6,741487,"1"
14446,13466,-744,-5278,610,25369,-111,700747,"2"
14447,15436,-518,-5662,1518,26351,-295,700757,"2"
14448,16758,196,-7260,2035,27144,-601,700767,"2"
14449,17052,336,-9638,2319,27247,-957,700777,"2"
14450,15588,748,-11266,2192,26890,-1503,700787,"2"
14446,7636,598,-2018,629,-3970,22,741497,"1"
14447,7770,792,-2044,757,-4309,56,741507,"1"
14448,7664,902,-1996,836,-4707,102,741517,"1"
14449,7530,818,-1926,915,-5172,210,741527,"1"
14450,7564,654,-2102,1017,-5664,325,741537,"1"
14451,15286,1122,-11642,1310,25718,-1972,700797,"2"
14452,15250,1152,-11700,-476,24052,-2013,700807,"2"
14453,15360,230,-12190,-2333,22111,-1533,700817,"2"
14454,14768,90,-14050,-2298,20070,-1581,700827,"2"
14455,13216,-2768,-15706,-681,18287,-1785,700837,"2"
14451,7728,718,-2126,1133,-6127,455,741547,"1"
14452,7852,534,-2318,1274,-6733,636,741557,"1"
14453,8064,836,-2526,1329,-7082,569,741567,"1"
14454,8382,-506,-2572,1211,-7409,829,741577,"1"
14455,8308,-202,-3436,457,-7714,1196,741587,"1"
14456,9326,-6494,-18260,1557,15935,-1545,700847,"2"
14457,2638,-6036,-23138,5129,11838,-311,700857,"2"
14458,-3004,-2204,-24646,6103,5380,1508,700867,"2"
14459,-3560,2678,-22152,2615,-2645,2273,700877,"2"
14460,2472,2150,-16516,281,-8323,1374,700887,"2"
14456,8726,-292,-3320,-62,-7818,1502,741597,"1"
14457,8778,260,-3540,-725,-7957,1903,741607,"1"
14458,8836,1066,-3758,-1043,-7818,2084,741617,"1"
14459,9132,940,-4098,-592,-7852,2002,741627,"1"
14460,9212,372,-4486,189,-7952,1896,741637,"1"
14461,11008,-3640,-7596,-422,-10740,1302,700897,"2"
14462,15286,-4526,4970,595,-9505,1763,700907,"2"
14463,20734,-1114,24028,2525,-5341,1888,700917,"2"
14464,6430,3234,340,4523,-3784,1529,700927,"2"
14465,-1976,826,-8192,1620,-7453,1940,700937,"2"
14461,9756,-6,-3990,1140,-7988,1649,741647,"1"
14462,9978,-692,-3636,1920,-8200,1527,741657,"1"
14463,10264,-558,-3392,2250,-8470,1250,741667,"1"
14464,10320,-1138,-2706,2497,-8951,1380,741677,"1"
14465,10932,-828,-2346,2524,-9428,1423,741687,"1"
14466,7938,4132,-4862,1093,-9260,-51,700947,"2"
14467,14814,3254,798,1212,-8368,-4,700957,"2"
14468,14422,1414,-690,108,-8171,1837,700967,"2"
14469,11894,-78,-3360,973,-8717,2220,700977,"2"
14470,9408,-4524,-7792,1402,-9808,2895,700987,"2"
14466,11524,-122,-1434,2564,-9964,1177,741697,"1"
14467,12168,-966,-592,3227,-10585,1096,741707,"1"
14468,12786,-1606,-242,4529,-10884,644,741717,"1"
14469,13646,-1674,58,6826,-11231,-186,741727,"1"
14470,15646,-2844,1958,9945,-11170,-895,741737,"1"
14471,11362,-2634,-4944,3893,-10273,3112,700997,"2"
14472,13578,1668,-1512,7378,-9047,2571,701007,"2"
14473,9878,2054,-2948,7245,-8248,2680,701017,"2"
14474,8212,442,-3118,5777,-8011,2439,701027,"2"
14475,8446,-1116,-2186,5616,-7104,2511,701037,"2"
14471,15804,-1694,506,12195,-12096,-923,741747,"1"
14472,12736,330,-4060,13995,-13623,-325,741757,"1"
14473,13340,-44,-2944,13496,-13428,1028,741767,"1"
14474,13074,2072,-4198,11386,-13150,2269,741777,"1"
14475,13744,3940,-4528,9212,-12964,2670,741787,"1"
14476,8200,-528,-1412,5384,-6131,2307,701047,"2"
14477,7472,-574,-1774,4155,-5465,1919,701057,"2"
14478,8194,116,-1416,3259,-4875,1772,701067,"2"
14479,9570,1314,-1044,2059,-4392,1757,701077,"2"
14480,10196,2366,-1058,59,-4216,1737,701087,"2"
14476,15036,4754,-3264,5320,-12048,3092,741797,"1"
14477,14530,4274,-3406,1343,-10532,3425,741807,"1"
14478,10734,3678,-4980,-1387,-8459,3056,741817,"1"
14479,8898,2510,-1652,-2339,-6277,2568,741827,"1"
14480,2446,-622,-5180,-3238,-5294,2032,741837,"1"
14481,10188,1582,-1306,-1435,-4072,1570,701097,"2"
14482,9802,326,-1232,-2111,-3838,1725,701107,"2"
14483,8954,-586,-722,-1997,-3453,1788,701117,"2"
14484,8376,-1192,-898,-1415,-3081,1778,701127,"2"
14485,8352,-1112,-852,-732,-2796,1683,701137,"2"
14481,5612,-724,-588,-1995,-2858,1640,741847,"1"
14482,7672,-224,2542,-737,-847,859,741857,"1"
14483,8604,730,3866,-606,2193,-58,741867,"1"
14484,6386,1892,2148,-1514,4834,-591,741877,"1"
14485,4442,2398,882,-3100,6745,-642,741887,"1"
14486,8502,-1284,-1016,148,-2542,1455,701147,"2"
14487,8738,-1376,-1010,955,-2360,1149,701157,"2"
14488,8584,-660,-1146,956,-2233,984,701167,"2"
14489,8556,74,-1134,71,-2193,886,701177,"2"
14490,8818,344,-842,-1241,-2119,926,701187,"2"
14486,3714,2180,118,-4559,8460,-480,741897,"1"
14487,3416,1790,26,-5391,10188,-486,741907,"1"
14488,3592,1058,-662,-5844,11840,-549,741917,"1"
14489,4238,264,-1450,-5782,13492,-716,741927,"1"
14490,4680,-312,-1882,-5537,14841,-810,741937,"1"
14491,8510,338,-1294,-2460,-2044,1036,701197,"2"
14492,8534,-442,-1288,-2909,-1952,1086,701207,"2"
14493,8624,-1292,-1296,-2228,-1841,1040,701217,"2"
14494,8482,-1408,-1172,-1228,-1852,916,701227,"2"
14495,8238,-1648,-1086,40,-1807,708,701237,"2"
14491,5366,-492,-2200,-4943,16011,-978,741947,"1"
14492,6944,-1050,-2414,-4077,17264,-1489,741957,"1"
14493,6568,-1200,-3316,-3112,18060,-1640,741967,"1"
14494,6450,-906,-3468,-2281,19008,-1847,741977,"1"
14495,6508,-496,-3572,-1527,19676,-1938,741987,"1"
14496,8028,-1638,-1044,1215,-1825,501,701247,"2"
14497,8056,-1468,-916,1901,-1863,346,701257,"2"
14498,8408,-544,-438,1650,-1902,357,701267,"2"
14499,7976,152,-1010,737,-2027,471,701277,"2"
14500,7860,528,-1220,-473,-2333,670,701287,"2"
14496,6884,-280,-3850,-737,20251,-2161,741997,"1"
14497,7902,254,-4342,-184,20802,-2442,742007,"1"
14498,8886,658,-4866,-20,21328,-2683,742017,"1"
14499,9754,690,-5430,-302,21815,-2738,742027,"1"
14500,10484,352,-6112,-736,22239,-2599,742037,"1"
14501,8110,-2,-1294,-1334,-2553,844,701297,"2"
14502,8250,-698,-1340,-1486,-2702,881,701307,"2"
14503,8122,-1070,-1480,-1105,-2831,800,701317,"2"
14504,8128,-1240,-1412,-607,-2922,721,701327,"2"
14505,8066,-1060,-1544,-302,-2992,675,701337,"2"
14501,11496,-42,-6390,-796,22776,-2466,742047,"1"
14502,12432,-452,-6558,-431,23301,-2369,742057,"1"
14503,13236,-920,-6966,294,23622,-2361,742067,"1"
14504,13422,-1352,-7900,1495,23550,-2574,742077,"1"
14505,13438,-1272,-8974,3260,23084,-3266,742087,"1"
14506,8206,-624,-1762,-384,-3093,670,701347,"2"
14507,8372,-256,-1658,-876,-3206,739,701357,"2"
14508,8536,-332,-1638,-1529,-3337,873,701367,"2"
14509,8594,-452,-1752,-2022,-3482,923,701377,"2"
14510,8318,-388,-1624,-2350,-3759,940,701387,"2"
14506,13594,-1108,-9592,4718,22445,-4086,742097,"1"
14507,13526,-20,-10078,5623,21546,-4907,742107,"1"
14508,13258,1248,-10836,5804,20290,-5679,742117,"1"
14509,12884,1778,-12082,4613,18795,-6056,742127,"1"
14510,12062,478,-13840,2582,17601,-5948,742137,"1"
14511,7974,-666,-1288,-2364,-4134,955,701397,"2"
14512,7802,-616,-974,-2335,-4660,1033,701407,"2"
14513,7864,-552,-910,-2129,-5237,1047,701417,"2"
14514,8246,-560,-1084,-1898,-5862,1049,701427,"2"
14515,8484,-652,-1634,-1511,-6276,1027,701437,"2"
14511,9598,-2038,-15762,899,15935,-5393,742147,"1"
14512,4760,-4110,-19830,565,12571,-4630,742157,"1"
14513,-1468,-4806,-23432,755,7289,-3458,742167,"1"
14514,-4074,-4994,-22888,587,950,-1709,742177,"1"
14515,-1454,-1368,-18230,524,-4579,-217,742187,"1"
14516,8902,0,-1832,-1092,-6785,870,701447,"2"
14517,9240,-156,-2070,-770,-7275,726,701457,"2"
14518,9008,-52,-2764,-458,-7580,622,701467,"2"
14519,9138,-230,-2646,-102,-7848,454,701477,"2"
14520,9444,-354,-2884,-81,-8098,365,701487,"2"
14516,2766,1128,-14824,-497,-8250,415,742197,"1"
14517,5926,716,-13432,-2479,-10052,1010,742207,"1"
14518,13416,2068,-2498,-3018,-8725,757,742217,"1"
14519,19244,4388,17222,-2103,-5620,-270,742227,"1"
14520,15558,4948,15910,-6730,-3487,708,742237,"1"
14521,9876,-324,-2770,-370,-8288,302,701497,"2"
14522,9936,164,-2730,-1331,-8586,445,701507,"2"
14523,10240,232,-2792,-2579,-8925,669,701517,"2"
14524,10594,744,-2448,-3571,-9155,712,701527,"2"
14525,11110,476,-2166,-4087,-9490,667,701537,"2"
14521,2760,-516,-1396,-11975,-3777,2013,742247,"1"
14522,2390,-5302,-7662,-10389,-5277,2290,742257,"1"
14523,8550,-12170,-3012,-7078,-5089,3322,742267,"1"
14524,12912,-6764,-1642,-1307,-6483,1189,742277,"1"
14525,13630,-1488,-4790,1798,-7951,-1251,742287,"1"
14526,11112,232,-2066,-4433,-10046,952,701547,"2"
14527,11538,1584,-1336,-4864,-10382,1089,701557,"2"
14528,11874,2202,-670,-5432,-11034,1232,701567,"2"
14529,12600,2344,-230,-5971,-11312,1368,701577,"2"
14530,13656,1424,860,-6229,-11735,1620,701587,"2"
14526,9572,3400,-9946,2012,-10009,-2058,742297,"1"
14527,9968,3216,-5104,171,-9878,-1737,742307,"1"
14528,12310,-2524,-830,-3490,-9429,4,742317,"1"
14529,10744,-594,-974,-5474,-8909,661,742327,"1"
14530,6958,-40,-2176,-5891,-8695,903,742337,"1"
14531,15094,906,2216,-6443,-11984,1740,701597,"2"
14532,16102,-528,2834,-6460,-12360,1752,701607,"2"
14533,15382,-2722,1158,-5192,-12818,1817,701617,"2"
14534,13494,-2202,-1744,-3930,-13328,1403,701627,"2"
14535,14018,-1824,-2120,-2690,-13770,521,701637,"2"
14531,5460,1910,-2572,-5711,-8705,269,742347,"1"
14532,7338,1284,-2732,-4228,-7705,-159,742357,"1"
14533,7756,1172,-3362,-2206,-7379,-434,742367,"1"
14534,8648,722,-2840,-1260,-6555,-623,742377,"1"
14535,9240,-704,-2202,-1235,-5805,-499,742387,"1"
14536,15682,-2432,-512,-2400,-13049,162,701647,"2"
14537,15722,-2496,-548,-2496,-11716,331,701657,"2"
14538,12480,468,-3242,-237,-10842,-392,701667,"2"
14539,11224,-222,-3012,1408,-9513,-1184,701677,"2"
14540,9904,-2126,-4756,1332,-8585,-1089,701687,"2"
14536,9292,-1002,-2078,-1223,-5124,-355,742397,"1"
14537,9250,-256,-2070,-1377,-4792,-320,742407,"1"
14538,9050,500,-1816,-1548,-4518,-302,742417,"1"
14539,8236,1130,-1776,-1795,-4489,-149,742427,"1"
14540,7604,1292,-1782,-2189,-4372,79,742437,"1"
14541,8744,-1440,-6112,1806,-6437,-986,701697,"2"
14542,7184,-1342,-2854,2143,-4738,-618,701707,"2"
14543,8988,406,3034,2067,-1747,-885,701717,"2"
14544,8682,1460,4760,2471,882,-1475,701727,"2"
14545,7114,590,4110,1460,3392,-1414,701737,"2"
14541,7458,1154,-1654,-2538,-4112,245,742447,"1"
14542,7766,584,-1780,-2401,-4039,291,742457,"1"
14543,8244,158,-2244,-1669,-3921,281,742467,"1"
14544,8674,170,-2438,-677,-3699,191,742477,"1"
14545,8452,322,-2396,311,-3457,-26,742487,"1"
14546,5328,220,1936,939,5232,-1499,701747,"2"
14547,4624,-374,-314,604,6612,-1702,701757,"2"
14548,4740,-288,-1296,-83,8193,-1848,701767,"2"
14549,5312,-76,-1070,-484,9863,-1956,701777,"2"
14550,5692,362,-376,-829,11832,-2103,701787,"2"
14546,7850,758,-2044,690,-3196,-139,742497,"1"
14547,7632,926,-1904,333,-2923,-21,742507,"1"
14548,7742,906,-2048,-302,-2683,251,742517,"1"
14549,7924,914,-2074,-525,-2589,381,742527,"1"
14550,7992,856,-2272,-324,-2530,354,742537,"1"
14551,5836,1120,-344,-1676,13552,-2115,701797,"2"
14552,5936,1658,-450,-2872,14881,-2068,701807,"2"
14553,6086,1234,-944,-4253,15983,-1831,701817,"2"
14554,6518,252,-1472,-5132,17124,-1425,701827,"2"
14555,6994,-976,-1730,-4971,18397,-1002,701837,"2"
14551,7798,898,-2272,-8,-2468,327,742547,"1"
14552,7530,844,-2378,291,-2372,261,742557,"1"
14553,7510,680,-2314,659,-2329,100,742567,"1"
14554,7578,550,-2434,888,-2320,-18,742577,"1"
14555,7610,760,-2396,760,-2304,-28,742587,"1"
14556,7612,-1530,-2156,-4012,19673,-696,701847,"2"
14557,8436,-1202,-2680,-2989,20867,-463,701857,"2"
14558,8728,-928,-3122,-2221,21740,-316,701867,"2"
14559,9410,-1114,-3614,-1592,22444,-86,701877,"2"
14560,10258,-1414,-4242,-667,23076,113,701887,"2"
14556,7650,994,-2324,518,-2326,-53,742597,"1"
14557,7548,530,-2554,408,-2350,23,742607,"1"
14558,7452,550,-2576,388,-2359,-32,742617,"1"
14559,7520,500,-2734,592,-2390,-155,742627,"1"
14560,7586,404,-2878,821,-2440,-259,742637,"1"
14561,11136,-1530,-5038,643,23634,189,701897,"2"
14562,12458,-1394,-5226,1990,24366,88,701907,"2"
14563,14082,-654,-5676,2742,25261,-146,701917,"2"
14564,15126,402,-6946,2933,25820,-600,701927,"2"
14565,15720,114,-8466,2314,26012,-878,701937,"2"
14561,7560,544,-2858,940,-2479,-315,742647,"1"
14562,7586,432,-2682,991,-2577,-341,742657,"1"
14563,7692,452,-2708,1015,-2734,-326,742667,"1"
14564,7558,274,-2466,1070,-3094,-270,742677,"1"
14565,7586,680,-2086,1032,-3557,-162,742687,"1"
14566,15152,-528,-9776,1497,25827,-881,701947,"2"
14567,13918,-166,-11442,1258,25215,-1126,701957,"2"
14568,13414,170,-11222,345,23894,-1427,701967,"2"
14569,14002,256,-11756,-1663,22298,-1067,701977,"2"
14570,14244,-436,-12770,-2983,20174,-551,701987,"2"
14566,7586,576,-2036,1083,-4202,-62,742697,"1"
14567,7656,394,-2006,1141,-4793,149,742707,"1"
14568,7888,436,-2264,1332,-5475,282,742717,"1"
14569,8284,450,-2362,1743,-6119,306,742727,"1"
14570,8086,296,-2720,1947,-6745,367,742737,"1"
14571,14076,-382,-14068,-2184,18250,-807,701997,"2"
14572,11456,-2522,-17114,-961,16602,-1197,702007,"2"
14573,7306,-4720,-19280,1391,14019,-1064,702017,"2"
14574,212,-5542,-23390,3396,8847,337,702027,"2"
14575,-2814,-2234,-22920,4105,2326,1998,702037,"2"
14571,7862,272,-2830,1634,-7132,634,742747,"1"
14572,8164,610,-3078,1015,-7454,917,742757,"1"
14573,8308,444,-3338,402,-7684,1260,742767,"1"
14574,8318,284,-3438,-91,-7791,1651,742777,"1"
14575,8558,814,-3854,-187,-7867,1726,742787,"1"
14576,-774,762,-19546,2166,-4313,2172,702047,"2"
14577,3066,-692,-16794,1841,-8817,1514,702057,"2"
14578,15422,-4578,2502,1580,-8443,1871,702067,"2"
14579,20390,-868,20338,4790,-6246,1394,702077,"2"
14580,13546,4480,13050,9250,-4239,436,702087,"2"
14576,9010,640,-3970,438,-7975,1660,742797,"1"
14577,9586,328,-3938,1311,-8078,1618,742807,"1"
14578,9726,112,-3716,2194,-8216,1499,742817,"1"
14579,9680,86,-3402,2865,-8575,1081,742827,"1"
14580,9988,-1396,-2922,3486,-8942,1017,742837,"1"
14581,-2570,430,-6682,7427,-4023,1311,702097,"2"
14582,1530,4520,-7322,4218,-7761,593,702107,"2"
14583,14038,6430,20,4063,-7675,-827,702117,"2"
14584,15898,3952,1792,1550,-7300,1447,702127,"2"
14585,12718,2220,-2336,632,-7859,2379,702137,"2"
14581,10354,-1394,-2710,3858,-9528,965,742847,"1"
14582,11024,-1404,-2076,4350,-9996,902,742857,"1"
14583,11668,-1670,-1590,5138,-10484,567,742867,"1"
14584,12486,-2266,-1200,6429,-10833,280,742877,"1"
14585,13596,-2278,-532,8350,-10957,-293,742887,"1"
14586,10872,-3312,-3322,-464,-8951,3253,702147,"2"
14587,9602,-7142,-7718,801,-9606,4005,702157,"2"
14588,11988,-1684,-4106,6115,-9212,3382,702167,"2"
14589,12476,2350,-2242,8910,-8229,2577,702177,"2"
14590,9226,3502,-3090,7014,-7869,2167,702187,"2"
14586,16396,-2550,1266,10893,-11234,-447,742897,"1"
14587,15472,242,-1052,12479,-12612,-179,742907,"1"
14588,12072,2534,-4576,12510,-14074,160,742917,"1"
14589,13594,1228,-2762,10812,-13389,1473,742927,"1"
14590,14570,3230,-2480,8415,-12464,2579,742937,"1"
14591,8564,922,-2286,4676,-7797,2182,702197,"2"
14592,8356,-528,-1672,3228,-6752,2414,702207,"2"
14593,7638,-210,-1512,1590,-5825,2439,702217,"2"
14594,7958,566,-1626,122,-5216,2196,702227,"2"
14595,9626,940,-1390,-694,-4722,1881,702237,"2"
14591,13826,5032,-4592,7192,-12306,2444,742947,"1"
14592,13554,2836,-4770,4127,-11484,2690,742957,"1"
14593,13962,1944,-3758,929,-9908,3178,742967,"1"
14594,10106,1344,-6364,-847,-8914,3136,742977,"1"
14595,7694,1372,-3648,-452,-6966,2312,742987,"1"
14596,10392,198,-1062,-938,-4216,1655,702247,"2"
14597,10208,-778,-1236,-67,-3662,1556,702257,"2"
14598,9198,-544,-1116,776,-3248,1458,702267,"2"
14599,8766,500,-772,786,-2897,1519,702277,"2"
14600,8480,394,-674,359,-2661,1547,702287,"2"
14596,2996,-690,-5182,-720,-5961,1849,742997,"1"
14597,6068,-946,-1106,-23,-3724,1360,743007,"1"
14598,7046,-508,1710,939,-1623,492,743017,"1"
14599,7930,234,3364,1359,1069,-344,743027,"1"
14600,6248,1420,2660,1376,3644,-1084,743037,"1"
14601,8540,-14,-776,-109,-2587,1605,702297,"2"
14602,8670,-616,-792,-261,-2541,1441,702307,"2"
14603,8546,-1186,-816,104,-2443,1120,702317,"2"
14604,8408,-882,-908,154,-2397,931,702327,"2"
14605,8328,-198,-1034,-391,-2435,842,702337,"2"
14601,4356,1090,1382,369,5519,-1301,743047,"1"
14602,3564,878,244,-915,7057,-1209,743057,"1"
14603,3284,1006,-382,-1887,8624,-1280,743067,"1"
14604,3234,762,-626,-2950,10191,-1378,743077,"1"
14605,3740,684,-1088,-3415,11803,-1788,743087,"1"
14606,8410,72,-996,-1077,-2455,799,702347,"2"
14607,8418,-104,-944,-1653,-2531,833,702357,"2"
14608,8416,-702,-976,-1574,-2497,835,702367,"2"
14609,8540,-1544,-894,-711,-2403,732,702377,"2"
14610,8330,-1864,-714,747,-2237,478,702387,"2"
14606,4534,-652,-1056,-3766,13308,-2131,743097,"1"
14607,4912,-752,-1592,-3613,14497,-2516,743107,"1"
14608,5222,-1632,-2128,-3164,15527,-2867,743117,"1"
14609,6112,-1692,-2740,-2809,16596,-3237,743127,"1"
14610,6878,-1944,-3378,-2185,17485,-3589,743137,"1"
14611,8248,-1532,-538,1780,-2184,315,702397,"2"
14612,8208,-810,-596,1879,-2212,309,702407,"2"
14613,8106,-452,-700,1614,-2233,297,702417,"2"
14614,8088,-140,-794,1089,-2364,325,702427,"2"
14615,8072,-64,-734,513,-2389,496,702437,"2"
14611,6962,-1846,-3708,-1602,18231,-3790,743147,"1"
14612,6952,-1814,-4074,-833,18793,-3947,743157,"1"
14613,7254,-1518,-4420,-303,19263,-4086,743167,"1"
14614,7850,-1500,-4598,-68,19765,-4126,743177,"1"
14615,8524,-1374,-4986,-102,20236,-4135,743187,"1"
14616,8194,-152,-1014,119,-2496,567,702447,"2"
14617,8342,-306,-1170,-2,-2542,551,702457,"2"
14618,8398,-566,-1180,28,-2542,573,702467,"2"
14619,8306,-690,-1250,95,-2576,578,702477,"2"
14620,8162,-664,-1310,173,-2600,598,702487,"2"
14616,9020,-1442,-5266,-352,20697,-3959,743197,"1"
14617,9802,-1414,-5608,-688,21135,-3729,743207,"1"
14618,10734,-1492,-6008,-827,21592,-3544,743217,"1"
14619,11802,-1608,-6384,-744,22086,-3491,743227,"1"
14620,12500,-2050,-6792,-374,22520,-3351,743237,"1"
14621,8220,-472,-1496,156,-2628,590,702497,"2"
14622,8400,-428,-1534,40,-2691,581,702507,"2"
14623,8462,-302,-1476,-231,-2746,635,702517,"2"
14624,8248,-90,-1596,-655,-2835,689,702527,"2"
14625,8236,-172,-1412,-1065,-2966,746,702537,"2"
14621,13168,-2924,-7694,51,22577,-2979,743247,"1"
14622,13390,-2862,-8488,890,22365,-2698,743257,"1"
14623,12918,-1944,-8896,1810,21788,-2715,743267,"1"
14624,12966,-880,-9630,2139,20999,-2777,743277,"1"
14625,12850,922,-10412,1568,19903,-2901,743287,"1"
14626,8150,-328,-1398,-1377,-3188,811,702547,"2"
14627,8202,-602,-1258,-1410,-3428,816,702557,"2"
14628,8198,-810,-998,-1403,-3798,848,702567,"2"
14629,7996,-740,-748,-1397,-4237,877,702577,"2"
14630,7940,-700,-866,-1521,-4744,935,702587,"2"
14626,12306,2550,-10948,-449,18545,-2845,743297,"1"
14627,11462,2940,-11572,-3784,17149,-2414,743307,"1"
14628,10404,2632,-12918,-7171,15953,-1890,743317,"1"
14629,8218,1720,-15602,-8898,14360,-1774,743327,"1"
14630,3416,-2630,-18762,-9489,11090,-1654,743337,"1"
14631,8150,-622,-1138,-1630,-5334,942,702597,"2"
14632,8368,-748,-1398,-1726,-5797,959,702607,"2"
14633,8330,-798,-1952,-1632,-6273,933,702617,"2"
14634,8338,-624,-2116,-1368,-6490,793,702627,"2"
14635,8318,-718,-2514,-1041,-6761,673,702637,"2"
14631,-1428,-6596,-21406,-8671,6010,-794,743347,"1"
14632,-2874,-6996,-19326,-5350,450,279,743357,"1"
14633,-318,-2548,-15328,-1686,-4476,792,743367,"1"
14634,3398,2304,-12582,-660,-7281,652,743377,"1"
14635,5450,3998,-11032,-1836,-8929,664,743387,"1"
14636,8784,-204,-2558,-715,-6931,433,702647,"2"
14637,9096,-376,-2932,-410,-7177,154,702657,"2"
14638,9110,-896,-2674,-440,-7315,167,702667,"2"
14639,9260,-352,-2904,-743,-7573,177,702677,"2"
14640,9750,-330,-3032,-1399,-7795,236,702687,"2"
14636,15438,4820,6856,-1032,-5033,4,743397,"1"
14637,19276,4600,18700,-772,-2728,-227,743407,"1"
14638,9314,1950,6176,-5397,-2047,708,743417,"1"
14639,1032,-2798,-6320,-5959,-4131,82,743427,"1"
14640,5244,-8230,-5788,-2080,-6217,937,743437,"1"
14641,10022,-70,-3118,-2023,-8022,270,702697,"2"
14642,10032,-384,-3094,-2337,-8301,343,702707,"2"
14643,10120,112,-2802,-2402,-8556,435,702717,"2"
14644,10012,692,-3046,-2342,-8912,438,702727,"2"
14645,10078,956,-2732,-2389,-9287,616,702737,"2"
14641,11760,-4202,-284,2390,-6674,522,743447,"1"
14642,15236,1322,-678,3180,-7764,-716,743457,"1"
14643,10230,2466,-8246,807,-8353,-1304,743467,"1"
14644,6268,1914,-12284,-1880,-9250,-1261,743477,"1"
14645,10244,-4494,-4290,-1412,-9301,-1111,743487,"1"
14646,10358,1510,-2514,-2407,-9844,515,702747,"2"
14647,10928,1016,-2058,-2532,-10316,626,702757,"2"
14648,11632,1570,-1510,-3048,-10806,810,702767,"2"
14649,13138,1420,-604,-3651,-11334,940,702777,"2"
14650,15528,1180,448,-4546,-10835,1341,702787,"2"
14646,16392,-6252,3092,-1588,-9428,-651,743497,"1"
14647,12300,-7146,-1296,-3477,-8160,-68,743507,"1"
14648,5286,-1010,-3804,-1797,-8075,-715,743517,"1"
14649,4118,3660,-1764,-129,-8755,-1603,743527,"1"
14650,5434,5192,-498,-733,-8511,-2017,743537,"1"
14651,16968,1644,1846,-6020,-10900,1620,702797,"2"
14652,16462,544,2912,-7156,-11098,1795,702807,"2"
14653,12812,-1096,-646,-7991,-11546,2102,702817,"2"
14654,10856,-364,-2090,-7884,-12143,1613,702827,"2"
14655,12460,-1236,-1142,-7044,-12193,728,702837,"2"
14651,7966,5524,-476,-3092,-7249,-1457,743547,"1"
14652,8298,3798,-1436,-5570,-6048,-436,743557,"1"
14653,10116,1468,-1820,-7881,-5224,611,743567,"1"
14654,9828,-610,-2092,-8310,-4251,984,743577,"1"
14655,8860,-3498,-2714,-5830,-3958,647,743587,"1"
14656,13512,-3198,-2212,-7257,-11590,754,702847,"2"
14657,12652,-2106,-5808,-7017,-11140,848,702857,"2"
14658,12474,-878,-4088,-5218,-10321,283,702867,"2"
14659,10432,-2360,-5280,-3704,-9544,182,702877,"2"
14660,9114,-2514,-7086,-2390,-8720,301,702887,"2"
14656,8968,-4672,-3068,-2066,-3881,-222,743597,"1"
14657,8930,-2004,-2158,871,-3769,-1268,743607,"1"
14658,7912,854,-1554,2380,-4120,-1554,743617,"1"
14659,7588,1692,-1258,1923,-3937,-1232,743627,"1"
14660,7620,1528,-1176,-193,-3299,-466,743637,"1"
14661,7558,-2084,-4938,-1087,-6807,683,702897,"2"
14662,8294,-910,680,-745,-4310,1095,702907,"2"
14663,7914,856,4010,-1048,-1648,1080,702917,"2"
14664,7050,780,4866,-1656,658,1290,702927,"2"
14665,5282,104,2844,-2239,2479,1595,702937,"2"
14661,8174,1128,-1310,-2039,-2881,153,743647,"1"
14662,8460,390,-1982,-2604,-2765,369,743657,"1"
14663,8516,-302,-2380,-2169,-2580,316,743667,"1"
14664,8304,-512,-2602,-1244,-2334,107,743677,"1"
14665,7702,-418,-2448,-12,-2148,-312,743687,"1"
14666,4002,120,408,-2078,4007,1527,702947,"2"
14667,4074,-470,-446,-1903,5288,1467,702957,"2"
14668,4772,-394,-870,-1193,6726,1474,702967,"2"
14669,5170,122,-666,-380,8545,1465,702977,"2"
14670,5500,406,-290,165,10324,1493,702987,"2"
14666,7558,-202,-2216,937,-1893,-654,743697,"1"
14667,7770,190,-2254,1090,-1690,-687,743707,"1"
14668,7938,858,-2014,650,-1525,-479,743717,"1"
14669,7960,1162,-1782,-12,-1477,-172,743727,"1"
14670,7728,1046,-1770,-575,-1508,102,743737,"1"
14671,5962,1102,-208,229,12029,1660,702997,"2"
14672,6084,1394,-438,16,13396,1878,703007,"2"
14673,6364,1258,-862,-180,14638,2174,703017,"2"
14674,6540,944,-1224,-56,15827,2399,703027,"2"
14675,6872,594,-1772,392,16983,2513,703037,"2"
14671,7454,742,-1876,-860,-1510,257,743747,"1"
14672,7338,248,-1924,-657,-1548,186,743757,"1"
14673,7448,-80,-2008,-89,-1642,-63,743767,"1"
14674,7560,6,-2100,405,-1745,-264,743777,"1"
14675,7626,406,-1976,511,-1891,-282,743787,"1"
14676,7498,720,-2160,970,18117,2506,703047,"2"
14677,8058,1146,-2520,1342,19190,2424,703057,"2"
14678,8794,1704,-2660,1343,19926,2295,703067,"2"
14679,9206,1940,-3178,1358,20581,2058,703077,"2"
14680,10082,2022,-3344,1299,21361,1737,703087,"2"
14676,7674,536,-1940,382,-2068,-229,743797,"1"
14677,7450,478,-1976,214,-2228,-153,743807,"1"
14678,7406,474,-1938,79,-2407,-109,743817,"1"
14679,7518,518,-1986,-8,-2587,-56,743827,"1"
14680,7446,648,-2036,-67,-2768,-21,743837,"1"
14681,10624,1792,-3984,1270,21867,1499,703097,"2"
14682,11340,1714,-4710,1673,22194,1174,703107,"2"
14683,12694,1446,-4552,2027,22761,760,703117,"2"
14684,13456,1464,-5742,2629,23251,275,703127,"2"
14685,13528,2482,-7520,3550,23744,-573,703137,"2"
14681,7544,612,-2100,-107,-2911,34,743847,"1"
14682,7682,400,-2330,-128,-3061,67,743857,"1"
14683,7650,312,-2362,-108,-3244,134,743867,"1"
14684,7668,388,-2316,22,-3395,154,743877,"1"
14685,7702,532,-2354,138,-3649,208,743887,"1"
14686,14382,3214,-7384,2984,23941,-1437,703147,"2"
14687,14932,3720,-7964,682,23983,-1959,703157,"2"
14688,14958,4414,-7796,-2272,23492,-2377,703167,"2"
14689,14606,4296,-7574,-5648,22823,-2448,703177,"2"
14690,14256,3736,-7230,-9126,21960,-2133,703187,"2"
14686,7588,384,-2390,258,-3951,242,743897,"1"
14687,7512,344,-2374,303,-4190,323,743907,"1"
14688,7600,564,-2412,231,-4474,412,743917,"1"
14689,7744,688,-2560,269,-4699,416,743927,"1"
14690,7622,-10,-2786,381,-4985,500,743937,"1"
14691,14308,2284,-8090,-11502,20974,-1525,703197,"2"
14692,14082,504,-9406,-11982,19762,-842,703207,"2"
14693,13190,-786,-10344,-10487,18365,-349,703217,"2"
14694,11090,-1710,-12062,-7704,16896,-180,703227,"2"
14695,7844,-1296,-14076,-4590,14548,-175,703237,"2"
14691,7708,-50,-2912,614,-5268,496,743947,"1"
14692,7552,-250,-3000,760,-5519,447,743957,"1"
14693,7520,-270,-3282,798,-5785,492,743967,"1"
14694,7666,-50,-3442,642,-5989,678,743977,"1"
14695,7880,-134,-3612,342,-6049,935,743987,"1"
14696,2332,-802,-17420,-2692,10446,269,703247,"2"
14697,-2128,-446,-19140,-1033,4378,327,703257,"2"
14698,-1686,-1772,-16000,1272,-1934,-148,703267,"2"
14699,1996,-2704,-12900,3921,-6133,-328,703277,"2"
14700,5132,-1632,-12420,6408,-8399,-468,703287,"2"
14696,7910,-534,-3754,13,-6135,1279,743997,"1"
14697,7946,-16,-4050,-129,-6202,1527,744007,"1"
14698,7956,450,-3982,193,-6242,1545,744017,"1"
14699,7880,144,-4394,864,-6371,1511,744027,"1"
14700,8558,-122,-4660,1672,-6285,1400,744037,"1"
14701,5972,-278,-12418,8110,-10032,-527,703297,"2"
14702,10876,136,-1188,7432,-9783,13,703307,"2"
14703,24396,-2302,29018,5717,-4947,1448,703317,"2"
14704,12794,-430,12294,7186,-3581,1384,703327,"2"
14705,-3298,1734,-7392,5953,-2765,1684,703337,"2"
14701,8770,-228,-4800,2173,-6259,1581,744047,"1"
14702,8876,-144,-4592,2311,-6157,1717,744057,"1"
14703,9012,-700,-4066,2500,-6232,1637,744067,"1"
14704,9126,-2070,-3842,2656,-6471,1875,744077,"1"
14705,9240,-1998,-3678,2537,-6831,2173,744087,"1"
14706,64,2894,-8838,1502,-7318,218,703347,"2"
14707,13402,2942,418,1794,-8204,-1639,703357,"2"
14708,17812,444,3202,53,-7674,724,703367,"2"
14709,14834,164,-614,96,-8057,1531,703377,"2"
14710,10600,-1726,-2354,692,-8395,1482,703387,"2"
14706,9692,-1670,-3218,2403,-7358,2415,744097,"1"
14707,9920,-2102,-2752,2500,-7870,2667,744107,"1"
14708,9964,-2012,-2460,3078,-8498,2471,744117,"1"
14709,10648,-2960,-2306,4497,-9329,2296,744127,"1"
14710,11966,-3032,-1488,6284,-9732,2212,744137,"1"
14711,6474,-5912,-8656,1589,-9290,1501,703397,"2"
14712,8896,-3840,-6804,5380,-9814,1446,703407,"2"
14713,14824,1060,-930,8596,-9699,1587,703417,"2"
14714,15112,3638,-2056,10346,-8311,1426,703427,"2"
14715,8596,2866,-3306,8006,-8105,1799,703437,"2"
14711,12500,-1864,-1386,8142,-10482,1490,744147,"1"
14712,12788,-980,-972,9833,-10826,803,744157,"1"
14713,14272,-1004,498,10799,-11201,1292,744167,"1"
14714,13126,1356,-2368,10937,-12307,2480,744177,"1"
14715,11728,3404,-4600,10512,-12612,2844,744187,"1"
14716,7356,-624,-1778,7224,-6933,1645,703447,"2"
14717,6412,-1026,-1014,6171,-5628,1773,703457,"2"
14718,7098,1094,-1304,3294,-4692,2027,703467,"2"
14719,8662,2136,-1320,995,-3887,1825,703477,"2"
14720,10328,1676,-1668,-999,-3449,1694,703487,"2"
14716,13198,4088,-2658,8934,-11812,3039,744197,"1"
14717,12198,3808,-3882,5691,-11407,3705,744207,"1"
14718,11780,2024,-5088,1608,-10538,4294,744217,"1"
14719,11996,1216,-4502,-1633,-9150,4661,744227,"1"
14720,11818,-518,-4744,-3295,-8224,5214,744237,"1"
14721,11238,306,-1688,-1230,-2713,1524,703497,"2"
14722,10514,-1482,-1092,120,-2116,1446,703507,"2"
14723,9282,-1370,-736,1028,-1676,1498,703517,"2"
14724,8264,-544,-652,1730,-1396,1334,703527,"2"
14725,8068,-722,-706,2174,-1069,1291,703537,"2"
14721,9208,-668,-7182,-3469,-7993,5267,744247,"1"
14722,6630,-434,-5566,-4044,-6763,5288,744257,"1"
14723,4816,-546,-3566,-4401,-5466,4914,744267,"1"
14724,6878,510,-164,-3850,-3142,4070,744277,"1"
14725,8110,790,2942,-3750,-731,3513,744287,"1"
14726,8058,-332,-466,2099,-826,1210,703547,"2"
14727,8218,342,-190,1032,-811,1170,703557,"2"
14728,8496,388,-444,-331,-835,1187,703567,"2"
14729,8810,-178,-444,-1407,-781,1232,703577,"2"
14730,8872,-658,-332,-1747,-687,1193,703587,"2"
